timestamp_ms,acc_x,acc_y,acc_z,gyro_x,gyro_y,gyro_z
1768636987509,0.1071929931640625,-0.105499267578125,-0.9918060302734376,0.012997823767364,0.0034677020739763,-0.0139973079785704
1768636987517,0.10748291015625,-0.1099395751953125,-0.980926513671875,0.0021401161793619,0.0056355153210461,-0.0144417900592088
1768636987527,0.11474609375,-0.111602783203125,-0.974853515625,-0.012760535813868,0.0045462823472917,-0.0149001199752092
1768636987539,0.1213226318359375,-0.1115264892578125,-0.9741668701171876,-0.0221548378467559,0.0078605860471725,-0.0061039649881422
1768636987552,0.125244140625,-0.1110382080078125,-0.980865478515625,-0.0217790640890598,0.0006271744496189,0.0070472569204866
1768636987557,0.125946044921875,-0.1065521240234375,-0.9917755126953124,-0.007441138383001,-0.0011827098205685,0.0072946646250784
1768636987568,0.116607666015625,-0.1025238037109375,-0.9994354248046876,0.0078296931460499,0.0079833576455712,0.006730340886861
1768636987578,0.11328125,-0.1012725830078125,-1.0029754638671875,0.0247343741357326,0.0092222606763243,0.0038147119339555
1768636987588,0.11444091796875,-0.0971832275390625,-1.0034942626953125,0.0388730950653553,0.0116545250639319,0.0021941782906651
1768636987598,0.109130859375,-0.0986328125,-0.9987945556640624,0.0474942810833454,0.017186976969242,-0.0075524584390223
1768636987608,0.1058197021484375,-0.098052978515625,-0.9904022216796876,0.0453669503331184,0.0181108266115188,-0.0100688794627785
1768636987618,0.1126251220703125,-0.1024322509765625,-0.9811859130859376,0.0401018783450126,0.0104651581496,-0.013922207057476
1768636987628,0.1150360107421875,-0.1039581298828125,-0.978179931640625,0.0327616743743419,0.0044754422269761,-0.0140993073582649
1768636987638,0.1153717041015625,-0.10821533203125,-0.975189208984375,0.0233790911734104,0.0055822520516812,-0.0100497044622898
1768636987648,0.1172332763671875,-0.1082611083984375,-0.9730072021484376,0.0121038006618618,0.0038362834602594,-0.0112963300198316
1768636987658,0.1137847900390625,-0.1076812744140625,-0.974945068359375,0.0077332872897386,0.0096861831843853,-0.0153358131647109
1768636987668,0.1141357421875,-0.105804443359375,-0.984100341796875,0.0122390892356634,0.0052613411098718,-0.0167571417987346
1768636987678,0.116973876953125,-0.1032562255859375,-0.989837646484375,0.0116539932787418,-0.0029534455388784,-0.0188349410891532
1768636987688,0.115203857421875,-0.10528564453125,-0.9876861572265624,0.0116337528452277,0.0067971860989928,-0.0203758459538221
1768636987698,0.1175079345703125,-0.1063995361328125,-0.9838714599609376,0.0073340791277587,0.0075535238720476,-0.011682222597301
1768636987708,0.1204071044921875,-0.1070556640625,-0.979095458984375,-0.0026953853666782,0.0038064562249928,-0.0077029271051287
1768636987719,0.1208953857421875,-0.10784912109375,-0.977264404296875,-0.0049899648874998,0.0001933454914251,-0.0016780578298494
1768636987728,0.119659423828125,-0.1060943603515625,-0.9813690185546876,-0.0013241237029433,-0.0029952572658658,-0.0010034791193902
1768636987738,0.1119537353515625,-0.1029815673828125,-0.98736572265625,0.0043654534965753,-6.950850365683436e-05,-0.0091088097542524
1768636987748,0.1077423095703125,-0.10260009765625,-0.98736572265625,0.0043984767980873,0.0076491311192512,-0.0136241996660828
1768636987758,0.1121673583984375,-0.1062469482421875,-0.9818267822265624,0.0031814121175557,0.0053308494389057,-0.0150005212053656
1768636987769,0.1179351806640625,-0.1095733642578125,-0.979217529296875,-0.0013286510948091,-0.0034935346338897,-0.013391438871622
1768636987782,0.1210784912109375,-0.1091766357421875,-0.9801788330078124,-0.0031984564848244,-0.0130923660472035,-0.0102363917976617
1768636987789,0.1162109375,-0.10791015625,-0.98260498046875,-0.0032602418214082,-0.0151752242818474,-0.0149224903434515
1768636987799,0.1079864501953125,-0.10601806640625,-0.9835205078125,0.0012892362428829,-0.0130319120362401,-0.0224784109741449
1768636987809,0.1042327880859375,-0.1036224365234375,-0.98370361328125,-0.0009528790251351,-0.0148604391142725,-0.0330138765275478
1768636987819,0.1051177978515625,-0.1046600341796875,-0.980377197265625,-0.0026695525739341,-0.0094033554196357,-0.0348615758121013
1768636987829,0.1052703857421875,-0.10455322265625,-0.9829254150390624,-0.0048187235370278,-0.0033563817851245,-0.0379649586975574
1768636987839,0.10675048828125,-0.1054840087890625,-0.9835205078125,-0.007889880798757,0.0015840481501072,-0.0464244894683361
1768636987849,0.1062774658203125,-0.10589599609375,-0.985107421875,-0.0081740403547883,0.0064677530899643,-0.0549125187098979
1768636987859,0.1070709228515625,-0.10369873046875,-0.988037109375,-0.0019848539959639,0.0015576828736811,-0.060154415667057
1768636987869,0.1120452880859375,-0.097930908203125,-0.99066162109375,0.0052738580852746,-0.0105802062898874,-0.062234878540039
1768636987879,0.1079254150390625,-0.0903472900390625,-0.9935760498046876,0.0131917018443346,-0.01599015109241,-0.0780527219176292
1768636987889,0.0941925048828125,-0.085784912109375,-0.9949798583984376,0.0231418050825595,-0.0076906764879822,-0.0998666733503341
1768636987899,0.094207763671875,-0.0862884521484375,-0.9915771484375,0.0227271504700183,-0.0053063482046127,-0.1135065853595733
1768636987909,0.1012725830078125,-0.0938568115234375,-0.9814605712890624,0.0085506113246083,-0.0156548600643873,-0.119214542210102
1768636987919,0.1109771728515625,-0.104461669921875,-0.9714508056640624,-0.0089982887730002,-0.0121605256572365,-0.1220279037952423
1768636987930,0.123443603515625,-0.1155853271484375,-0.9704132080078124,-0.0207305792719125,-0.0102526377886533,-0.1122996434569358
1768636987939,0.131103515625,-0.12213134765625,-0.9742889404296876,-0.0295869205147027,-0.0041649173945188,-0.0998312532901763
1768636987949,0.132965087890625,-0.12420654296875,-0.9774627685546876,-0.0315523333847522,0.0060035642236471,-0.0846975743770599
1768636987959,0.135711669921875,-0.118072509765625,-0.9857177734375,-0.018981147557497,-0.0030807447619736,-0.0729668885469436
1768636987969,0.1262359619140625,-0.107330322265625,-1.00506591796875,0.0081037329509854,0.0022413162514567,-0.0770609602332115
1768636987981,0.113311767578125,-0.1006011962890625,-1.0109100341796875,0.0280249770730733,0.0162279717624187,-0.0775009170174598
1768636987990,0.1166229248046875,-0.102020263671875,-1.0005035400390625,0.0314474031329155,0.0333385169506073,-0.0639645978808403
1768636988000,0.1303253173828125,-0.10906982421875,-0.9922637939453124,0.0366890393197536,0.0447309873998165,-0.0468418076634407
1768636988010,0.142425537109375,-0.111175537109375,-0.9930419921875,0.0513808988034725,0.0370072871446609,-0.0160010699182748
1768636988020,0.1512603759765625,-0.1114654541015625,-0.9997406005859376,0.0716177299618721,0.0067263459786772,0.0096446378156542
1768636988030,0.1386260986328125,-0.107208251953125,-0.997833251953125,0.0867287665605545,-0.0007153250626288,0.0181747432798147
1768636988040,0.1121063232421875,-0.106353759765625,-0.9822540283203124,0.0825295001268386,-0.0049082059413194,0.0062624234706163
1768636988050,0.09033203125,-0.1069793701171875,-0.9639434814453124,0.0610313974320888,-0.0128846392035484,-0.0270497277379035
1768636988060,0.08001708984375,-0.1080780029296875,-0.945404052734375,0.0166540779173374,-0.0057878480292856,-0.0662610456347465
1768636988070,0.07586669921875,-0.11236572265625,-0.9359283447265624,-0.0249463617801666,0.0096086850389838,-0.0978740975260734
1768636988082,0.0923004150390625,-0.10986328125,-0.94586181640625,-0.0421325415372848,0.0023036343045532,-0.1101909503340721
1768636988090,0.1164398193359375,-0.1053009033203125,-0.9725341796875,-0.0311129111796617,-0.0030304109677672,-0.1017513945698738
1768636988100,0.133331298828125,-0.1007537841796875,-0.996795654296875,-0.0087737841531634,-0.0015441008144989,-0.085817702114582
1768636988110,0.1412811279296875,-0.101165771484375,-1.001434326171875,0.0060874535702168,-0.0094744618982076,-0.0708872228860855
1768636988120,0.1396942138671875,-0.1065826416015625,-0.99310302734375,0.0076571209356188,-0.0077846860513091,-0.057223342359066
1768636988130,0.136871337890625,-0.109039306640625,-0.98388671875,0.0028759476263076,0.0044200485572218,-0.0436739772558212
1768636988140,0.1307830810546875,-0.1125640869140625,-0.97344970703125,-0.0116752982139587,0.0213793236762285,-0.0328721962869167
1768636988150,0.1246795654296875,-0.113372802734375,-0.967315673828125,-0.0212813206017017,0.0268808826804161,-0.0321030765771865
1768636988160,0.12054443359375,-0.1130828857421875,-0.9732208251953124,-0.0282010119408369,0.0323949567973613,-0.0322290435433387
1768636988170,0.1274871826171875,-0.1141510009765625,-0.9817657470703124,-0.0273429416120052,0.0339622274041175,-0.0228110402822494
1768636988180,0.134918212890625,-0.11468505859375,-0.9877166748046876,-0.0189806148409843,0.031263381242752,-0.0126241827383637
1768636988190,0.129913330078125,-0.115966796875,-0.9928741455078124,-0.0091817807406187,0.0391881503164768,-0.0058677429333329
1768636988201,0.126953125,-0.1154327392578125,-0.9926300048828124,-0.0044762413017451,0.0371108837425708,0.0093415705487132
1768636988211,0.1282196044921875,-0.1083221435546875,-0.9954071044921876,0.0087412940338253,0.0054858452640473,0.0078187743201851
1768636988221,0.11083984375,-0.0964508056640625,-0.9986572265625,0.0232368800789117,-0.0116294920444488,-0.0143733462318778
1768636988231,0.0926055908203125,-0.0895233154296875,-0.99383544921875,0.0272851511836051,0.0069409967400133,-0.041733331978321
1768636988241,0.09075927734375,-0.09014892578125,-0.985137939453125,0.023828899487853,0.0376429818570613,-0.0620772205293178
1768636988251,0.1032562255859375,-0.096343994140625,-0.9804229736328124,0.0165427569299936,0.0556574016809463,-0.0712416917085647
1768636988261,0.1246185302734375,-0.107147216796875,-0.978271484375,0.013359747827053,0.0519758500158786,-0.0549026615917682
1768636988271,0.147979736328125,-0.1160430908203125,-0.9835052490234376,0.0195167101919651,0.036091424524784,-0.0263589024543762
1768636988281,0.147735595703125,-0.11431884765625,-0.9915313720703124,0.0332415774464607,0.0153177035972476,-0.016945693641901
1768636988291,0.131927490234375,-0.11456298828125,-0.9874725341796876,0.03405437245965,0.0199763718992471,-0.0202781073749065
1768636988301,0.1154327392578125,-0.120086669921875,-0.96905517578125,0.0183702185750007,0.0332943052053451,-0.0317259728908538
1768636988311,0.1060333251953125,-0.125213623046875,-0.9531402587890624,-0.0133861126378178,0.031244471669197,-0.0503515861928463
1768636988321,0.1095733642578125,-0.129638671875,-0.9400634765625,-0.0533926524221897,0.0239450130611658,-0.0592998079955577
1768636988331,0.1246490478515625,-0.131988525390625,-0.9440765380859376,-0.0787824317812919,0.0239599272608757,-0.0475757755339145
1768636988341,0.135833740234375,-0.1220703125,-0.9737396240234376,-0.0645086839795112,0.012098740786314,-0.0360070019960403
1768636988351,0.1322479248046875,-0.1101837158203125,-1.0067291259765625,-0.0369225963950157,-0.0041665155440568,-0.0325941629707813
1768636988361,0.12127685546875,-0.103973388671875,-1.0164031982421875,-0.0148143656551837,0.0083045354112982,-0.037124466150999
1768636988371,0.1161956787109375,-0.101593017578125,-1.009857177734375,-0.0043268376030027,0.029310218989849,-0.038721028715372
1768636988381,0.12066650390625,-0.1072845458984375,-1.000579833984375,-0.0015246596885845,0.0317086614668369,-0.0328333154320716
1768636988391,0.1296234130859375,-0.1187896728515625,-0.98577880859375,-0.0090022832155227,0.0349539890885353,-0.0228445958346128
1768636988401,0.1384735107421875,-0.1269989013671875,-0.9777374267578124,-0.0117109846323728,0.0329686030745506,0.0002010686584981
1768636988411,0.148956298828125,-0.1241607666015625,-0.9835205078125,-0.0014101437991485,0.0206096712499856,0.0219862591475248
1768636988421,0.144134521484375,-0.1228485107421875,-0.9890289306640624,0.0079007996246218,0.0101309306919574,0.0318082645535469
1768636988432,0.13848876953125,-0.122100830078125,-0.982452392578125,0.0031941954512149,0.0076952041126787,0.0478319711983203
1768636988442,0.1328887939453125,-0.1175537109375,-0.972320556640625,-0.0046863644383847,0.0087697897106409,0.0557649955153465
1768636988452,0.1219940185546875,-0.114471435546875,-0.969757080078125,-0.0120281670242547,-0.0046592000871896,0.0513617247343063
1768636988462,0.1129608154296875,-0.107818603515625,-0.975494384765625,-0.0124066025018692,-0.0160514041781425,0.0387511253356933
1768636988472,0.102447509765625,-0.1058502197265625,-0.9775543212890624,-0.0125229824334383,-0.0198645181953907,0.0167257171124219
1768636988482,0.103057861328125,-0.10772705078125,-0.977508544921875,-0.020071180537343,-0.0241146571934223,0.0021124193444848
1768636988492,0.1083526611328125,-0.1104736328125,-0.973785400390625,-0.0317699126899242,-0.0155866825953125,-0.0054493602365255
1768636988502,0.117340087890625,-0.108795166015625,-0.972412109375,-0.0455640219151973,-0.0149224903434515,-0.0003728425363078
1768636988512,0.1260528564453125,-0.10247802734375,-0.9766387939453124,-0.0512533336877822,-0.0053034187294542,0.0052261874079704
1768636988522,0.1244354248046875,-0.0928955078125,-0.9866485595703124,-0.039114911109209,0.0021707424893975,0.0103114936500787
1768636988532,0.11773681640625,-0.0859375,-0.999969482421875,-0.0151262218132615,-0.0018847191240638,-0.002944657113403
1768636988542,0.1043548583984375,-0.085113525390625,-1.007110595703125,0.0047758468426764,-0.0016807209467515,-0.013668674044311
1768636988552,0.1078643798828125,-0.08966064453125,-1.001129150390625,0.0131967617198824,-0.0107684917747974,-0.0244294423609972
1768636988562,0.11572265625,-0.0969390869140625,-0.991363525390625,0.0127339046448469,-0.0205643977969884,-0.0306753553450107
1768636988572,0.1204681396484375,-0.10333251953125,-0.9836883544921876,0.0057463026605546,-0.0173904411494731,-0.0285874363034963
1768636988582,0.1277618408203125,-0.1079864501953125,-0.97955322265625,-0.0034842137247323,-0.0169824454933404,-0.0259469114243984
1768636988592,0.131103515625,-0.1145172119140625,-0.975921630859375,-0.0171667356044054,-0.0116065889596939,-0.0227806791663169
1768636988602,0.1338653564453125,-0.1176300048828125,-0.97308349609375,-0.0329004265367984,0.0003028014034498,-0.013293701224029
1768636988614,0.1366424560546875,-0.118011474609375,-0.9750213623046876,-0.0381820052862167,0.0022437132429331,-0.0023774039000272
1768636988622,0.132904052734375,-0.114593505859375,-0.98712158203125,-0.0271551888436079,0.0067945229820907,0.0010634001810103
1768636988633,0.1236419677734375,-0.1097869873046875,-0.99920654296875,-0.0057500312104821,0.0055428370833396,-0.0024322650860995
1768636988642,0.1207122802734375,-0.104217529296875,-1.0072479248046875,0.0214805249124765,0.0052120727486908,-0.0093921702355146
1768636988653,0.1165618896484375,-0.0991668701171875,-1.0107574462890625,0.0494359917938709,0.0065316688269376,-0.0141677502542734
1768636988663,0.1156158447265625,-0.09722900390625,-1.0063629150390625,0.0600699931383132,0.0073932013474404,-0.0160380881279706
1768636988673,0.1179351806640625,-0.09918212890625,-0.9902496337890624,0.0555271729826927,0.0109927300363779,-0.0164934899657964
1768636988683,0.124053955078125,-0.1057891845703125,-0.9732513427734376,0.0399745814502239,0.0105354655534029,-0.0093085467815399
1768636988693,0.1274871826171875,-0.1111907958984375,-0.962432861328125,0.0178586263209581,0.0031166973058134,-0.0081961443647742
1768636988703,0.1309967041015625,-0.1138458251953125,-0.9583587646484376,0.0009392969077453,-0.0033289513085037,-0.0035489285364747
1768636988713,0.1312255859375,-0.1100921630859375,-0.9634857177734376,-0.0031358720734715,-0.0177771318703889,-0.0064712152816355
1768636988723,0.1224212646484375,-0.1065521240234375,-0.973785400390625,-0.0004641889827325,-0.0233785603195428,-0.0213713347911834
1768636988733,0.113433837890625,-0.10552978515625,-0.9806365966796876,0.0028615666087716,-0.0133810527622699,-0.027061179280281
1768636988743,0.1210479736328125,-0.1022491455078125,-0.9846038818359376,0.0112776877358555,-0.0129634691402316,-0.0265663638710975
1768636988753,0.1213531494140625,-0.1012115478515625,-0.987060546875,0.0142886582762002,-0.0121426824480295,-0.0283195227384567
1768636988763,0.1180419921875,-0.1014556884765625,-0.985504150390625,0.0091442298144102,-0.0032796829473227,-0.0338266715407371
1768636988773,0.1221466064453125,-0.104217529296875,-0.9808349609375,0.0011595403775572,0.007962585426867,-0.0306007862091064
1768636988783,0.1289825439453125,-0.105194091796875,-0.978057861328125,-0.0118880849331617,0.0110963266342878,-0.0191830154508352
1768636988793,0.13543701171875,-0.1084747314453125,-0.97723388671875,-0.0170277189463377,0.0101927164942026,-0.0096603501588106
1768636988803,0.135009765625,-0.1128387451171875,-0.97894287109375,-0.0192972645163536,0.0082672508433461,-0.0045540053397417
1768636988814,0.1287841796875,-0.1143646240234375,-0.9810333251953124,-0.0242374297231435,0.0090715251863002,-0.0055713327601552
1768636988823,0.12237548828125,-0.1170806884765625,-0.977294921875,-0.0297488402575254,0.0094651412218809,-0.0102358600124716
1768636988833,0.123504638671875,-0.116668701171875,-0.9780426025390624,-0.0359084643423557,0.0093314498662948,-0.0035944685805588
1768636988843,0.1257476806640625,-0.1162261962890625,-0.98309326171875,-0.0317936167120933,0.0072541842237114,-0.0026865969412028
1768636988854,0.1239013671875,-0.1134033203125,-0.991912841796875,-0.0186652969568967,0.0003432814555708,-0.0053974287584424
1768636988863,0.12091064453125,-0.1114654541015625,-0.9989166259765624,-0.0005028048180975,0.0010088054696097,-0.006939931306988
1768636988873,0.123779296875,-0.1112213134765625,-1.0006256103515625,0.0134731978178024,-0.0011590076610445,4.740426811622456e-05
1768636988884,0.1268310546875,-0.1106414794921875,-0.9965667724609376,0.0176178757101297,0.0044466801919043,0.0104353306815028
1768636988894,0.126312255859375,-0.110382080078125,-0.98748779296875,0.0168500859290361,0.0082448804751038,0.018361696973443
1768636988904,0.1214141845703125,-0.105499267578125,-0.9844207763671876,0.0195899456739425,-2.6365294615970924e-05,0.0141400536522269
1768636988914,0.114532470703125,-0.1032867431640625,-0.9858245849609376,0.0215873178094625,-0.0034557178150862,0.0033076461404561
1768636988924,0.1068572998046875,-0.10272216796875,-0.9857330322265624,0.0235189087688922,0.0048943576402962,-0.0074693677015602
1768636988934,0.1082916259765625,-0.103363037109375,-0.982818603515625,0.0246435608714818,0.0014357101172208,-0.0169899016618728
1768636988944,0.1139373779296875,-0.1068115234375,-0.9836883544921876,0.0231314189732074,-0.0054874434135854,-0.023872310295701
1768636988954,0.1192779541015625,-0.11322021484375,-0.9760894775390624,0.0117738349363207,-0.0073167686350643,-0.0240456815809011
1768636988964,0.12310791015625,-0.112640380859375,-0.9725494384765624,-0.0012570120161399,-0.0075085163116455,-0.0225593708455562
1768636988974,0.126861572265625,-0.114990234375,-0.97430419921875,-0.0118521321564912,-0.0177150815725326,-0.0194839518517255
1768636988984,0.1246185302734375,-0.11480712890625,-0.9749298095703124,-0.019145730882883,-0.0128486873582005,-0.0173265263438224
1768636988994,0.1198577880859375,-0.107696533203125,-0.985931396484375,-0.0120486728847026,-0.0117605188861489,-0.0239676497876644
1768636989004,0.1172637939453125,-0.103057861328125,-0.9984130859375,0.0038469361606985,-0.0168263837695121,-0.0297608245164155
1768636989015,0.1242218017578125,-0.1065216064453125,-1.0010223388671875,0.0146356681361794,-0.0053204633295536,-0.0252787247300148
1768636989024,0.1305999755859375,-0.1095428466796875,-0.9954986572265624,0.0203087329864501,-0.0036621128674596,-0.0126867666840553
1768636989034,0.135833740234375,-0.113616943359375,-0.988250732421875,0.0214293915778398,-0.0054733287543058,0.0010516822803765
1768636989044,0.1327972412109375,-0.1109619140625,-0.985565185546875,0.0244632642716169,-0.0036133769899606,0.0035968653392046
1768636989055,0.12127685546875,-0.1087799072265625,-0.9845123291015624,0.0281309708952903,0.0010586065473034,-0.0021779332309961
1768636989065,0.1111297607421875,-0.1073760986328125,-0.9832763671875,0.0264033786952495,0.0060267336666584,-0.0143682863563299
1768636989075,0.1079254150390625,-0.108612060546875,-0.9789276123046876,0.0242518093436956,0.0031478563323616,-0.0242949537932872
1768636989084,0.1138458251953125,-0.11328125,-0.975616455078125,0.0158050619065761,0.0017816547770053,-0.0290289875119924
1768636989094,0.1230926513671875,-0.121002197265625,-0.9673309326171876,0.0045902244746685,0.008676579222083,-0.0238826964050531
1768636989105,0.133392333984375,-0.1234130859375,-0.96612548828125,-0.004097007215023,0.0083974795415997,-0.011945342645049
1768636989115,0.1384429931640625,-0.1220855712890625,-0.971435546875,-0.0072256885468959,0.0055462992750108,0.0038690404035151
1768636989125,0.1316070556640625,-0.114349365234375,-0.979095458984375,-0.0021382521372288,0.0065276739187538,0.0066339340992271
1768636989135,0.1188812255859375,-0.1061553955078125,-0.9871673583984376,0.0079276980832219,0.0058530955575406,0.0047145942226052
1768636989145,0.114166259765625,-0.10369873046875,-0.9919891357421876,0.0146439233794808,-0.0039398805238306,-0.0053894389420747
1768636989155,0.11151123046875,-0.112213134765625,-0.9853668212890624,0.0076475334353744,-0.004962267819792,-0.014803446829319
1768636989165,0.1165313720703125,-0.115020751953125,-0.978057861328125,-0.0016474314033985,-0.0009946906939148,-0.0180266704410314
1768636989175,0.123565673828125,-0.1164398193359375,-0.976318359375,-0.0129538821056485,0.0023046995047479,-0.0116598522290587
1768636989185,0.1291046142578125,-0.11187744140625,-0.9762420654296876,-0.0163462162017822,0.0077604511752724,-0.0003422161971684
1768636989195,0.1253204345703125,-0.1044921875,-0.98248291015625,-0.0108470553532242,0.011430287733674,0.0026479810476303
1768636989205,0.11749267578125,-0.0989837646484375,-0.9875640869140624,-0.0037436054553836,0.0077343522571027,-0.002060487633571
1768636989215,0.1117706298828125,-0.0989227294921875,-0.988311767578125,-0.0010594055056571,0.0059495018795132,-0.0129379024729132
1768636989225,0.1107177734375,-0.098480224609375,-0.9815216064453124,-0.004071706905961,0.0036770266015082,-0.0233191717416048
1768636989235,0.1200103759765625,-0.103179931640625,-0.97747802734375,-0.0079537965357303,-0.0111543834209442,-0.0250864438712596
1768636989245,0.1257171630859375,-0.1093902587890625,-0.9750213623046876,-0.0137214045971632,-0.0190985929220914,-0.0275597218424081
1768636989255,0.1223297119140625,-0.1181488037109375,-0.971343994140625,-0.02535648830235,-0.0135299237444996,-0.0308625753968954
1768636989265,0.1237640380859375,-0.1274566650390625,-0.9628753662109376,-0.0498011112213134,-0.0108582405373454,-0.0266862045973539
1768636989276,0.132659912109375,-0.131561279296875,-0.9605560302734376,-0.0688725411891937,-0.0111120399087667,-0.0139187453314661
1768636989285,0.139739990234375,-0.12750244140625,-0.975311279296875,-0.0692941173911094,-0.0076525933109223,0.0006407565670087
1768636989296,0.1331787109375,-0.1194000244140625,-0.9920806884765624,-0.0588915459811687,0.007603058591485,0.0069987871684134
1768636989306,0.1238861083984375,-0.1099853515625,-1.0063934326171875,-0.0316106565296649,0.0096358489245176,0.008012119680643
1768636989317,0.11834716796875,-0.1010589599609375,-1.020111083984375,0.0013555489713326,0.0095793902873992,0.0066698868758976
1768636989325,0.1145172119140625,-0.0962066650390625,-1.0227508544921875,0.0342514477670192,0.0137059586122632,0.0023417174816131
1768636989336,0.1136016845703125,-0.0967254638671875,-1.016448974609375,0.0556757785379886,0.0135237984359264,-0.0024799355305731
1768636989346,0.1157379150390625,-0.0997772216796875,-1.0019378662109375,0.063216783106327,0.0144433882087469,-0.006939931306988
1768636989356,0.118194580078125,-0.1075286865234375,-0.9886627197265624,0.0577213540673255,0.0011803129455074,-0.0095285242423415
1768636989366,0.1216888427734375,-0.1129913330078125,-0.9752960205078124,0.0472237057983875,-0.0108414627611637,-0.0109250852838158
1768636989376,0.123077392578125,-0.1165771484375,-0.9646453857421876,0.0248515531420707,-0.0063865263946354,-0.0120931481942534
1768636989386,0.1226348876953125,-0.1203155517578125,-0.955841064453125,0.0023134879302233,-0.0024977787397801,-0.009907491505146
1768636989396,0.127471923828125,-0.11859130859375,-0.9581146240234376,-0.0104883275926113,-0.0023230754304677,-0.0074752266518771
1768636989406,0.1290283203125,-0.11517333984375,-0.9723052978515624,-0.0100821955129504,0.0040221721865236,0.0020343887154012
1768636989416,0.13201904296875,-0.110198974609375,-0.9807891845703124,-0.0075697689317166,0.0064075654372572,0.014831144362688
1768636989426,0.1311187744140625,-0.10455322265625,-0.9866180419921876,0.0003230414295103,0.0049446909688413,0.0191004574298858
1768636989436,0.1213836669921875,-0.0997772216796875,-0.991973876953125,0.0043715788051486,-0.0035132421180605,0.016039153560996
1768636989446,0.1150970458984375,-0.097564697265625,-0.9885406494140624,0.00305065093562,-0.0078262314200401,0.0062387213110923
1768636989456,0.1121826171875,-0.100250244140625,-0.9835357666015624,-0.0059668123722076,-0.0003022687742486,0.0013630058383569
1768636989466,0.1159210205078125,-0.1041259765625,-0.9770660400390624,-0.0146053079515695,0.0009062737226486,-0.0005656554130837
1768636989476,0.1212921142578125,-0.11248779296875,-0.971710205078125,-0.0227503199130296,-0.0023829964920878,-0.0011739213950932
1768636989486,0.123748779296875,-0.11688232421875,-0.96844482421875,-0.0296985078603029,-0.0033486587926745,-0.0009592706337571
1768636989497,0.1240997314453125,-0.118865966796875,-0.9715423583984376,-0.0311011932790279,-0.0070440610870718,-0.0021283982787281
1768636989506,0.122711181640625,-0.1185455322265625,-0.9785614013671876,-0.0292404424399137,-0.0096627473831176,-0.0069276806898415
1768636989517,0.1196136474609375,-0.1155242919921875,-0.98468017578125,-0.022226208820939,-0.0108646322041749,-0.0113770244643092
1768636989526,0.120452880859375,-0.117462158203125,-0.9874267578125,-0.0217982400208711,-0.0021201425697654,-0.0087878992781043
1768636989537,0.1243743896484375,-0.1169891357421875,-0.98455810546875,-0.0239641889929771,0.0095588844269514,0.0017968347528949
1768636989549,0.1293182373046875,-0.116729736328125,-0.9876251220703124,-0.0201188512146472,0.0136721367016434,0.0126518793404102
1768636989557,0.1295166015625,-0.1130828857421875,-0.9947509765625,-0.0101466439664363,0.0133869117125868,0.0231109112501144
1768636989567,0.125457763671875,-0.1040802001953125,-1.0042572021484375,0.0075604477897286,0.007831291295588,0.0233793575316667
1768636989577,0.1161956787109375,-0.0993194580078125,-1.0074310302734375,0.0259857941418886,0.008339955471456,0.0153278233483433
1768636989587,0.1085968017578125,-0.09912109375,-1.0021820068359375,0.0321472845971584,0.0071457936428487,0.003475425299257
1768636989597,0.107879638671875,-0.1009521484375,-0.9917449951171876,0.0298369918018579,0.0039302930235862,-0.0084920218214392
1768636989607,0.11212158203125,-0.1071014404296875,-0.981353759765625,0.0224512461572885,-5.5393749789800495e-05,-0.0140843940898776
1768636989617,0.12188720703125,-0.113739013671875,-0.97247314453125,0.0110758207738399,-0.0022112226579338,-0.0104228137060999
1768636989627,0.1233978271484375,-0.117706298828125,-0.9674530029296876,-0.0020743361674249,-0.0004804342461284,-0.0095588844269514
1768636989637,0.12322998046875,-0.1193084716796875,-0.9629669189453124,-0.0185273457318544,0.0041441447101533,-0.0075420723296701
1768636989648,0.1231536865234375,-0.1204986572265625,-0.9627532958984376,-0.0340258777141571,0.0127685256302356,-0.0032405343372374
1768636989657,0.1261749267578125,-0.1183929443359375,-0.9680328369140624,-0.0369867794215679,0.0146764144301414,0.0012114719720557
1768636989667,0.128082275390625,-0.11395263671875,-0.9809417724609376,-0.0289267227053642,0.0100952442735433,0.005143629387021
1768636989677,0.1291046142578125,-0.1072845458984375,-0.991973876953125,-0.0174407754093408,0.011110708117485,0.0097554251551628
1768636989687,0.13165283203125,-0.106964111328125,-0.996368408203125,-0.0071647022850811,0.0198855567723512,0.0165451541543006
1768636989697,0.133087158203125,-0.108062744140625,-0.995147705078125,-0.0007552724564447,0.0212166048586368,0.02719646692276
1768636989707,0.13165283203125,-0.1082916259765625,-0.9921417236328124,0.0022698121611028,0.020635237917304,0.0353201739490032
1768636989717,0.1288299560546875,-0.1097412109375,-0.9871826171875,0.0037678403314203,0.0224411264061927,0.03806908801198
1768636989727,0.1199493408203125,-0.1084747314453125,-0.9844970703125,0.0062813316471874,0.0192269571125507,0.0304870698601007
1768636989737,0.1125640869140625,-0.1059417724609375,-0.9823760986328124,0.009253685362637,0.0083255739882588,0.0181643571704626
1768636989749,0.1062774658203125,-0.1049957275390625,-0.9815673828125,0.0088792452588677,-0.0058376491069793,0.0017465010751038
1768636989758,0.105865478515625,-0.1071319580078125,-0.978790283203125,0.0046884948387742,-0.0064147561788558,-0.0161081291735172
1768636989768,0.10723876953125,-0.1143646240234375,-0.9707489013671876,-0.0067977188155055,-0.0080123860388994,-0.0231178365647792
1768636989778,0.1170806884765625,-0.11492919921875,-0.96923828125,-0.0155600514262914,-0.0094036217778921,-0.0187140330672264
1768636989788,0.1244659423828125,-0.1112060546875,-0.9765625,-0.0194368138909339,-0.0068730860948562,-0.0125107318162918
1768636989798,0.122161865234375,-0.108123779296875,-0.9802398681640624,-0.0211526900529861,0.0071836104616522,-0.0083474116399884
1768636989808,0.116607666015625,-0.1063690185546875,-0.9807891845703124,-0.021811556071043,0.0201617274433374,-0.0094161387532949
1768636989818,0.1181182861328125,-0.112457275390625,-0.9812469482421876,-0.0249221269041299,0.0098190745338797,-0.0078129153698682
1768636989828,0.1275177001953125,-0.1192626953125,-0.981414794921875,-0.0253503639250993,0.0016378440195694,-0.0037199032958596
1768636989838,0.130035400390625,-0.1187896728515625,-0.9856414794921876,-0.0230597797781229,-0.0019347865600138,-0.0048842374235391
1768636989850,0.123321533203125,-0.115325927734375,-0.9911956787109376,-0.0166175924241542,-2.0772657080669887e-05,-0.0069226208142936
1768636989858,0.1217193603515625,-0.107147216796875,-0.997802734375,-0.0037561224307864,0.004668787587434,-0.0062472433783113
1768636989868,0.1209259033203125,-0.1016082763671875,-1.00244140625,0.0103437174111604,0.0072904033586382,-0.0045116613619029
1768636989878,0.1175994873046875,-0.095855712890625,-1.0012054443359375,0.0214624144136905,0.0131442975252866,-0.0081812310963869
1768636989888,0.113616943359375,-0.09808349609375,-0.9932098388671876,0.0225860029458999,0.015663381665945,-0.0143917221575975
1768636989898,0.1157989501953125,-0.1019439697265625,-0.984649658203125,0.0179505050182342,0.011860653758049,-0.0202219150960445
1768636989908,0.123870849609375,-0.1086578369140625,-0.97784423828125,0.0098824584856629,0.008635033853352,-0.0176889821887016
1768636989918,0.1303558349609375,-0.1151580810546875,-0.9709320068359376,0.0004657868703361,0.0007166566210798,-0.0106316050514578
1768636989928,0.1340179443359375,-0.1227569580078125,-0.96514892578125,-0.0169502217322587,-0.0040706414729356,-0.004865595139563
1768636989938,0.1309051513671875,-0.127716064453125,-0.9641265869140624,-0.0318218469619751,0.0020154803059995,-0.0015257250051945
1768636989948,0.1322479248046875,-0.127197265625,-0.9701385498046876,-0.0407743267714977,0.0003139867039863,0.0064754760824143
1768636989959,0.12939453125,-0.1242218017578125,-0.9788360595703124,-0.0385987907648086,0.0098590226843953,0.0096542248502373
1768636989968,0.1250762939453125,-0.1173858642578125,-0.989898681640625,-0.0297512374818325,0.0178943127393722,0.0149328764528036
1768636989979,0.124664306640625,-0.1106109619140625,-0.9980316162109376,-0.019056249409914,0.0285717230290174,0.0190945994108915
1768636989988,0.12310791015625,-0.105499267578125,-1.000946044921875,-0.0039585228078067,0.0292042251676321,0.026910176500678
1768636989999,0.1211395263671875,-0.1002197265625,-1.00042724609375,0.0071026505902409,0.0194163080304861,0.0249508898705244
1768636990009,0.11553955078125,-0.095977783203125,-0.9933624267578124,0.0147794783115386,0.0106723513454198,0.0153499273583292
1768636990019,0.10791015625,-0.092742919921875,-0.9885406494140624,0.0210725273936986,0.0096057560294866,0.0029832730069756
1768636990029,0.1096343994140625,-0.096038818359375,-0.9830169677734376,0.0202402900904417,0.0070310113951563,-0.0087559409439563
1768636990039,0.1124725341796875,-0.10174560546875,-0.9766387939453124,0.013137905858457,0.0017784589435905,-0.0197593234479427
1768636990049,0.1170501708984375,-0.110260009765625,-0.970489501953125,0.0067665595561265,-0.00943558011204,-0.0216855872422456
1768636990059,0.12738037109375,-0.115478515625,-0.967681884765625,-0.0117344204336404,-0.0036147085484117,-0.0163592658936977
1768636990069,0.1303863525390625,-0.1141204833984375,-0.96636962890625,-0.0234949402511119,0.0069873356260359,-0.013578925281763
1768636990079,0.1299285888671875,-0.1161651611328125,-0.9696502685546876,-0.0311720333993434,0.0138665474951267,-0.0069689597003161
1768636990089,0.13372802734375,-0.1123809814453125,-0.97625732421875,-0.0299099627882242,0.0163704510778188,0.0038219024427235
1768636990099,0.1299591064453125,-0.105926513671875,-0.987060546875,-0.0184277426451444,0.021706361323595,0.0054751927964389
1768636990109,0.1236419677734375,-0.10198974609375,-0.9954681396484376,-0.008084824308753,0.0186698250472545,0.0022192120086401
1768636990119,0.1219482421875,-0.10247802734375,-0.9995574951171876,0.0027095000259578,0.0141435153782367,-0.0031635691411793
1768636990129,0.1229400634765625,-0.1007232666015625,-1.0002288818359375,0.0138801289722323,0.0050948932766914,-0.0052118063904345
1768636990139,0.122100830078125,-0.0997772216796875,-1.001617431640625,0.0263474509119987,-0.0010828413069248,-0.0097719365730881
1768636990149,0.121917724609375,-0.1044158935546875,-0.9962615966796876,0.0293038263916969,0.0041816956363618,-0.0115788914263248
1768636990159,0.1212310791015625,-0.11016845703125,-0.98626708984375,0.0242099985480308,0.0078182416036725,-0.0106734167784452
1768636990169,0.126617431640625,-0.1196136474609375,-0.9741668701171876,0.0088337054476141,0.0106457201763987,-0.0017899106023833
1768636990180,0.134765625,-0.1244964599609375,-0.966400146484375,-0.0040607880800962,0.0106385294348001,0.0045068673789501
1768636990190,0.1375579833984375,-0.12481689453125,-0.97418212890625,-0.0038551918696612,0.0052512208931148,0.014201040379703
1768636990200,0.1376800537109375,-0.1209869384765625,-0.98486328125,0.0042392197065055,0.0023899206425994,0.0182812698185443
1768636990210,0.13177490234375,-0.1179962158203125,-0.9917755126953124,0.0150931989774107,0.0003075950953643,0.0208831783384084
1768636990220,0.12469482421875,-0.1124114990234375,-0.9920806884765624,0.0205414947122335,0.0027920580469071,0.0179443787783384
1768636990230,0.1182098388671875,-0.1078338623046875,-0.9871673583984376,0.0208261851221323,0.0020991035271435,0.0140420496463775
1768636990240,0.114501953125,-0.108062744140625,-0.980987548828125,0.0150950634852051,0.0059734703972935,0.0035526568535715
1768636990250,0.1107330322265625,-0.1064453125,-0.9783935546875,0.0101016359403729,0.0031878037843853,-0.0080006681382656
1768636990260,0.111907958984375,-0.1069488525390625,-0.9759521484375,0.0045899581164121,0.0036184368655085,-0.0166415609419345
1768636990270,0.117340087890625,-0.1067047119140625,-0.97509765625,0.0005033374181948,0.0055066179484128,-0.0174903105944395
1768636990280,0.1240386962890625,-0.11102294921875,-0.975189208984375,-0.0031169636640697,0.0023387880064547,-0.0135632129386067
1768636990290,0.128692626953125,-0.1150665283203125,-0.97491455078125,-0.0095841838046908,0.0041452101431787,-0.0076877470128238
1768636990300,0.13189697265625,-0.114501953125,-0.978851318359375,-0.0082707125693559,0.007302121259272,-0.0035116442013531
1768636990310,0.1317596435546875,-0.1140899658203125,-0.98541259765625,-0.0012721919920295,0.0041444110684096,0.0009872338268905
1768636990320,0.1305694580078125,-0.1146392822265625,-0.990814208984375,0.0044488105922937,0.0075503280386328,0.0028005801141262
1768636990330,0.1300506591796875,-0.114715576171875,-0.992279052734375,0.0103037701919674,0.0129261845722794,0.0064560351893305
1768636990340,0.128692626953125,-0.1145782470703125,-0.99139404296875,0.0144330011680722,0.0171949658542871,0.0055689360015094
1768636990350,0.1267852783203125,-0.1158447265625,-0.990081787109375,0.0200053993612527,0.0211894419044256,0.004482100252062
1768636990360,0.1287689208984375,-0.115997314453125,-0.988494873046875,0.0250142738223075,0.0148255517706274,0.0083032036200165
1768636990370,0.127777099609375,-0.1126708984375,-0.9856719970703124,0.0253511629998683,0.0017177389236167,0.0081748394295573
1768636990381,0.1186981201171875,-0.109283447265625,-0.9778289794921876,0.013864416629076,0.0105839343741536,0.002624811604619
1768636990390,0.111572265625,-0.108917236328125,-0.9668121337890624,-0.0025869945529848,0.0081713767722249,-0.0053132725879549
1768636990401,0.1109619140625,-0.1083526611328125,-0.96514892578125,-0.0170399695634841,0.0013824469642713,-0.0130060799419879
1768636990410,0.1151123046875,-0.1077423095703125,-0.9701385498046876,-0.0231215637177228,0.008191617205739,-0.0196623839437961
1768636990420,0.12158203125,-0.111572265625,-0.9764556884765624,-0.019684487953782,0.0042986082844436,-0.0175614170730114
1768636990431,0.1330108642578125,-0.1151275634765625,-0.9859161376953124,-0.0125959524884819,-0.0019116170005872,-0.0123932864516973
1768636990441,0.13726806640625,-0.1176910400390625,-0.989105224609375,-0.0019821908790618,0.0017289242241531,0.0009366337326355
1768636990451,0.1351318359375,-0.117218017578125,-0.9907073974609376,0.0077711041085422,0.0055633434094488,0.0051367050036787
1768636990461,0.1261749267578125,-0.1149444580078125,-0.9871063232421876,0.0063559003174304,0.0031515848822891,0.0031851406674832
1768636990471,0.118743896484375,-0.11279296875,-0.97955322265625,-0.0009267800487577,0.0048096687532961,-0.0031529164407402
1768636990481,0.117279052734375,-0.11187744140625,-0.974639892578125,-0.0079029304906725,0.0010149306617677,-0.0085868304595351
1768636990491,0.1160736083984375,-0.1143798828125,-0.9735870361328124,-0.0157789625227451,0.0010772485984489,-0.0145517783239483
1768636990501,0.119842529296875,-0.113983154296875,-0.9784393310546876,-0.0161888226866722,0.0022434468846768,-0.0218493714928627
1768636990511,0.1224822998046875,-0.1162872314453125,-0.9857635498046876,-0.0110635701566934,0.0066975839436054,-0.0204818397760391
1768636990521,0.1303863525390625,-0.1140899658203125,-0.988525390625,-0.0015065502375364,0.0074267573654651,-0.0122950160875916
1768636990531,0.1321258544921875,-0.1081085205078125,-0.9951629638671876,0.0106587698683142,0.0059186089783906,-0.0030282805673778
1768636990541,0.1276702880859375,-0.103515625,-0.9924163818359376,0.0181110929697752,0.0164415575563907,0.001767273643054
1768636990551,0.1202392578125,-0.102508544921875,-0.98162841796875,0.0121882231906056,0.0166567414999008,-0.0010953581659123
1768636990561,0.1190032958984375,-0.1061859130859375,-0.9716796875,0.0023718113079667,0.003288471372798,-0.0099849896505475
1768636990571,0.1210479736328125,-0.111328125,-0.964691162109375,-0.0123911555856466,-0.007245129905641,-0.0138809280470013
1768636990581,0.12261962890625,-0.1150665283203125,-0.9649200439453124,-0.0227974578738212,-0.0176706071943044,-0.0210698656737804
1768636990591,0.1248931884765625,-0.117767333984375,-0.96771240234375,-0.0309680365025997,-0.0179470423609018,-0.0240451488643884
1768636990601,0.128204345703125,-0.1212310791015625,-0.9716796875,-0.0416118912398815,-0.0131927672773599,-0.021385183557868
1768636990611,0.1342926025390625,-0.121978759765625,-0.9755859375,-0.0468910746276378,-0.0147296776995062,-0.0161528699100017
1768636990622,0.13360595703125,-0.11883544921875,-0.9805755615234376,-0.0484463609755039,-0.0118244355544447,-0.01098767016083
1768636990632,0.132232666015625,-0.1168212890625,-0.9857025146484376,-0.0441418960690498,0.0019768644124269,-0.0050932955928146
1768636990642,0.1340484619140625,-0.116119384765625,-0.9910125732421876,-0.0343579724431037,0.0014511564513668,0.0038778288289904
1768636990652,0.136871337890625,-0.118133544921875,-0.9952545166015624,-0.0214799921959638,-0.0050650658085942,0.0113919377326965
1768636990662,0.137176513671875,-0.115142822265625,-0.9980010986328124,-0.0017030915478244,0.0020700751338154,0.0202935542911291
1768636990672,0.132781982421875,-0.111724853515625,-1.0020294189453125,0.0204083360731601,0.0075900088995695,0.025131719186902
1768636990682,0.129058837890625,-0.11016845703125,-1.0028228759765625,0.0413213409483432,0.0073314160108566,0.0249176006764173
1768636990692,0.1271820068359375,-0.110321044921875,-0.99993896484375,0.0483784526586532,0.0073830815963447,0.0260686185210943
1768636990702,0.12274169921875,-0.110198974609375,-0.98590087890625,0.0422017835080623,0.0019568908028304,0.0255775321274995
1768636990712,0.1138458251953125,-0.1067657470703125,-0.9734344482421876,0.0230973288416862,0.0052352421917021,0.0138875860720872
1768636990722,0.1042938232421875,-0.103912353515625,-0.9626617431640624,-0.0002873550693038,0.0069396649487316,-0.000776844099164
1768636990732,0.105316162109375,-0.100616455078125,-0.96075439453125,-0.0144836017861962,-0.0013108078856021,-0.0180455800145864
1768636990742,0.1137542724609375,-0.1031494140625,-0.967498779296875,-0.0202943533658981,-0.0037302896380424,-0.0199026018381118
1768636990752,0.1248931884765625,-0.1011962890625,-0.97393798828125,-0.0200168509036302,-0.0024823325220495,-0.0174873806536197
1768636990762,0.1262054443359375,-0.100555419921875,-0.9796905517578124,-0.0200131218880414,0.0022695458028465,-0.0146042425185441
1768636990772,0.12701416015625,-0.104339599609375,-0.982330322265625,-0.0247956272214651,0.0039824908599257,-0.0145397940650582
1768636990782,0.1291046142578125,-0.107025146484375,-0.9804840087890624,-0.0236195754259824,0.0124934213235974,-0.009328787215054
1768636990792,0.1341552734375,-0.1063385009765625,-0.9826202392578124,-0.0239559318870306,0.012874785810709,-0.001472994335927
1768636990802,0.1356964111328125,-0.11090087890625,-0.982513427734375,-0.022618493065238,0.0181092284619808,0.0075029237195849
1768636990812,0.134124755859375,-0.1143035888671875,-0.9790191650390624,-0.0262608993798494,0.0153310196474194,0.0155976014211773
1768636990822,0.133056640625,-0.11749267578125,-0.9808349609375,-0.0235117170959711,0.0074973311275243,0.0174761954694986
1768636990832,0.1287078857421875,-0.1183319091796875,-0.9850006103515624,-0.0239759068936109,-0.0002721750643104,0.0181465130299329
1768636990843,0.125396728515625,-0.1177825927734375,-0.9856719970703124,-0.0231924038380384,-0.0021638183388859,0.0189222916960716
1768636990853,0.1220550537109375,-0.1142578125,-0.98858642578125,-0.0208586771041154,-0.0014610101934522,0.0181893892586231
1768636990863,0.1192169189453125,-0.111328125,-0.988525390625,-0.0204999484121799,-0.0009534116834402,0.0156074557453393
1768636990873,0.12176513671875,-0.109466552734375,-0.9904937744140624,-0.0141946487128734,-0.0041305627673864,0.0171779207885265
1768636990883,0.119232177734375,-0.106536865234375,-0.9912872314453124,-0.0094781899824738,0.0022940470371395,0.0137757332995533
1768636990893,0.1159210205078125,-0.1063995361328125,-0.98822021484375,-0.0028628981672227,0.0092259887605905,0.0086472835391759
1768636990903,0.12042236328125,-0.10723876953125,-0.989837646484375,0.0074464646168053,0.0043689156882464,0.0087138628587126
1768636990913,0.126312255859375,-0.1089935302734375,-0.993438720703125,0.0178519673645496,0.0047484161332249,0.0137198064476251
1768636990923,0.1316986083984375,-0.1104736328125,-0.99163818359375,0.0241034720093011,0.0022658174857497,0.0207779835909605
1768636990933,0.12872314453125,-0.112274169921875,-0.98590087890625,0.0214293915778398,0.0050381682813167,0.0218355245888233
1768636990943,0.1222076416015625,-0.1138763427734375,-0.977325439453125,0.0074930698610842,0.0074941352941095,0.0207143332809209
1768636990953,0.1172027587890625,-0.1138458251953125,-0.970794677734375,-0.0066618975251913,0.00605123443529,0.0139565616846084
1768636990963,0.115447998046875,-0.1115264892578125,-0.9708099365234376,-0.0183728821575641,0.005888249259442,0.0077244988642632
1768636990973,0.1179351806640625,-0.108795166015625,-0.976593017578125,-0.0244936253875494,-0.0003723099071066,0.0020176109392195
1768636990984,0.1206512451171875,-0.105804443359375,-0.9844512939453124,-0.0188799481838941,-0.0074302195571362,-0.0034157703630626
1768636990993,0.1204986572265625,-0.104248046875,-0.9925689697265624,-0.0071436632424592,-0.0064395233057439,-0.0072025191038846
1768636991003,0.120452880859375,-0.1007843017578125,-0.998077392578125,0.0046040727756917,-0.002934803487733,-0.0135967684909701
1768636991015,0.1181488037109375,-0.1005859375,-0.998260498046875,0.0126169919967651,0.0030700920615345,-0.0150239570066332
1768636991023,0.12255859375,-0.1022186279296875,-0.992156982421875,0.014748053625226,0.0026690200902521,-0.0164370294660329
1768636991033,0.1262359619140625,-0.107177734375,-0.983062744140625,0.010832673870027,0.0004479436902329,-0.0158623196184635
1768636991043,0.129730224609375,-0.10986328125,-0.97430419921875,0.0053420346230268,0.0007099987124092,-0.0127285784110426
1768636991053,0.1335601806640625,-0.113525390625,-0.9700164794921876,-0.0036831516772508,0.000221042369958,-0.0085218492895364
1768636991064,0.1347503662109375,-0.1159820556640625,-0.9697418212890624,-0.0091780517250299,0.0028871328104287,-0.0023052322212606
1768636991074,0.13421630859375,-0.1164398193359375,-0.9758148193359376,-0.0034743598662316,-6.391586794052273e-06,-0.000418915238697
1768636991084,0.134674072265625,-0.119384765625,-0.98077392578125,-0.002658367389813,0.000258326617768,-0.0008679241873323
1768636991094,0.13348388671875,-0.1174468994140625,-0.98236083984375,0.0063449810259044,0.0030056436080485,0.0032756880391389
1768636991104,0.1344451904296875,-0.11566162109375,-0.986328125,0.0141597613692283,-0.0016269250772893,0.0114132426679134
1768636991116,0.1294097900390625,-0.111541748046875,-0.9851226806640624,0.0125131290405988,-0.0061436463147401,0.0119485380128026
1768636991124,0.1212921142578125,-0.1104278564453125,-0.9725341796875,-0.0044456147588789,-0.0066962521523237,0.0091407680884003
1768636991134,0.1140289306640625,-0.1096649169921875,-0.964141845703125,-0.0247428975999355,-0.0062363240867853,0.0010926949325948
1768636991144,0.1121826171875,-0.11407470703125,-0.960723876953125,-0.0448212660849094,-0.0153201008215546,-0.0092723276466131
1768636991154,0.113525390625,-0.114990234375,-0.96319580078125,-0.055751945823431,-0.0247309133410453,-0.0201031379401683
1768636991165,0.114837646484375,-0.114898681640625,-0.9778594970703124,-0.0584926046431064,-0.0178482383489608,-0.0303573738783597
1768636991174,0.1201629638671875,-0.1076507568359375,-0.993316650390625,-0.0431378819048404,-0.0164111983031034,-0.0300236791372299
1768636991184,0.1234893798828125,-0.10137939453125,-1.01123046875,-0.0118111195042729,-0.0142383240163326,-0.0270057842135429
1768636991194,0.123748779296875,-0.09814453125,-1.021728515625,0.0179576948285102,-0.0045556034892797,-0.0230991933494806
1768636991204,0.1251373291015625,-0.098236083984375,-1.019073486328125,0.0429418757557868,-0.0002327602705918,-0.0211894419044256
1768636991216,0.1262969970703125,-0.1010589599609375,-1.0097808837890625,0.0516554713249206,-0.0034213629551231,-0.0201489441096782
1768636991224,0.12689208984375,-0.106719970703125,-0.9965362548828124,0.0518791750073432,-0.0139736058190464,-0.017780328169465
1768636991234,0.1289520263671875,-0.10821533203125,-0.983001708984375,0.0445067472755909,-0.0193417407572269,-0.0183052383363246
1768636991244,0.1241607666015625,-0.1119842529296875,-0.97210693359375,0.0302274115383625,-0.0172663386911153,-0.019083147868514
1768636991254,0.122222900390625,-0.115631103515625,-0.966094970703125,0.0089570097625255,-0.0140955792739987,-0.0232808217406272
1768636991265,0.1195526123046875,-0.11492919921875,-0.9644775390625,-0.0078832227736711,-0.0153195681050419,-0.0318929515779018
1768636991274,0.1191864013671875,-0.1125030517578125,-0.9723663330078124,-0.0125618642196059,-0.011926700361073,-0.0355121865868568
1768636991285,0.12518310546875,-0.109283447265625,-0.9835052490234376,-0.003196059493348,-0.0039619845338165,-0.0296087581664323
1768636991294,0.129730224609375,-0.110565185546875,-0.991668701171875,0.0108321411535143,0.0010942928493022,-0.0208072774112224
1768636991305,0.1344451904296875,-0.1135406494140625,-0.9941864013671876,0.0242603328078985,0.0049955574795603,-0.0096496976912021
1768636991315,0.1378326416015625,-0.11492919921875,-0.994232177734375,0.0359468162059783,0.0008285093936137,0.0019784623291343
1768636991325,0.1348419189453125,-0.1148681640625,-0.9889678955078124,0.0416521057486534,-0.0025385250337421,0.0138020981103181
1768636991335,0.12860107421875,-0.1115875244140625,-0.986419677734375,0.0479507483541965,-0.0040112533606588,0.0165230501443147
1768636991345,0.1181182861328125,-0.1109161376953125,-0.98272705078125,0.0451467037200927,0.0012242551892995,0.0103144226595759
1768636991355,0.11114501953125,-0.10968017578125,-0.97674560546875,0.0376376546919345,-0.0039071235805749,0.0019068233668804
1768636991365,0.1118011474609375,-0.1108245849609375,-0.9730987548828124,0.0269120410084724,-0.0052408347837626,-0.0020266654901206
1768636991375,0.1136932373046875,-0.1109161376953125,-0.9685516357421876,0.0137408459559082,-0.0032176312524825,-0.0078536616638302
1768636991385,0.1157073974609375,-0.114990234375,-0.96270751953125,-0.0083380909636616,-0.0045992792584002,-0.012811935506761
1768636991395,0.1183929443359375,-0.114898681640625,-0.9624481201171876,-0.0196349546313285,-0.0068331388756632,-0.0109413312748074
1768636991405,0.1251373291015625,-0.1117706298828125,-0.9702301025390624,-0.0212440360337495,-0.0119978068396449,-0.0026865969412028
1768636991415,0.1275177001953125,-0.107177734375,-0.979248046875,-0.0182943195104599,-0.0114646423608064,0.0002798982313834
1768636991425,0.1219482421875,-0.107879638671875,-0.9851226806640624,-0.0127227194607257,-0.017321465536952,9.58738019107841e-05
1768636991435,0.12042236328125,-0.1094970703125,-0.989959716796875,-0.0073101106099784,-0.0175891127437353,-0.0045484127476811
1768636991445,0.1190338134765625,-0.1086273193359375,-0.9925384521484376,-0.001970472978428,-0.0146577721461653,-0.0043409527279436
1768636991455,0.11932373046875,-0.1103515625,-0.9917755126953124,-0.0049662627279758,-0.0131871746852993,-0.0021094898693263
1768636991465,0.1226654052734375,-0.1148834228515625,-0.987060546875,-0.005217398982495,-0.0073971962556242,0.0015422365395352
1768636991475,0.1220703125,-0.118865966796875,-0.9821929931640624,-0.0098808603361248,-0.0119400164112448,0.0011885687708854
1768636991485,0.1188201904296875,-0.123199462890625,-0.975860595703125,-0.0196735691279172,-0.0131115410476922,-0.0030083067249506
1768636991495,0.1190185546875,-0.119659423828125,-0.9801025390625,-0.0202520079910755,-0.0060448427684605,-0.0084038712084293
1768636991506,0.1169281005859375,-0.1153106689453125,-0.986541748046875,-0.0189454611390829,-0.0047947550192475,-0.0111538516357541
1768636991516,0.1233978271484375,-0.113677978515625,-0.9918365478515624,0.0005483448621816,-0.0210120752453804,-0.0059822588227689
1768636991525,0.126190185546875,-0.1150970458984375,-1.001617431640625,0.0111972605809569,0.0053894389420747,0.0014554174849763
1768636991536,0.1260833740234375,-0.11114501953125,-0.99896240234375,0.0286332424730062,0.0033768883440643,0.008125570602715
1768636991546,0.126312255859375,-0.1190338134765625,-0.9932708740234376,0.0356277674436569,0.0084906900301575,0.0159304961562156
1768636991556,0.1265869140625,-0.1196136474609375,-0.981719970703125,0.0370514951646328,0.0107344035059213,0.0222485810518264
1768636991566,0.1221771240234375,-0.123046875,-0.9727020263671876,0.0290095470845699,0.0018855180824175,0.0212400406599044
1768636991576,0.117767333984375,-0.12152099609375,-0.9698333740234376,0.0199497397989034,-0.0087969535961747,0.0167667288333177
1768636991586,0.11492919921875,-0.117462158203125,-0.9674072265625,0.0067622987553477,-0.0063244746997952,0.0138018326833844
1768636991596,0.1124420166015625,-0.1194915771484375,-0.96240234375,-0.01240926515311,-0.0011491540353745,0.0101008368656039
1768636991606,0.1148681640625,-0.1202545166015625,-0.9621734619140624,-0.0298404525965452,-0.006329268682748,0.0055375108495354
1768636991616,0.1130828857421875,-0.1194915771484375,-0.97125244140625,-0.0357332304120063,-0.0062291338108479,-0.0015648734988644
1768636991626,0.11248779296875,-0.1175689697265625,-0.98126220703125,-0.0429320223629474,-0.0031068436801433,-0.0034096450544893
1768636991636,0.1157684326171875,-0.117828369140625,-0.9837188720703124,-0.0409639440476894,-0.0053857108578085,-0.0088318409398198
1768636991646,0.1175384521484375,-0.117462158203125,-0.993316650390625,-0.0403514169156551,-0.001915079075843,-0.0124244457110762
1768636991656,0.1175994873046875,-0.114044189453125,-0.99456787109375,-0.0290332492440938,-0.0088512822985649,-0.0136921098455786
1768636991666,0.1238250732421875,-0.1151885986328125,-1.0015716552734375,-0.0167566090822219,-0.0137568246573209,-0.0123706497251987
1768636991676,0.1220550537109375,-0.11322021484375,-1.0051422119140625,0.0009992180857807,-0.0140407178550958,-0.011691010557115
1768636991686,0.1198577880859375,-0.1142730712890625,-1.003265380859375,0.0052522863261401,-0.0236696433275938,-0.0142793366685509
1768636991696,0.119140625,-0.1112060546875,-0.997802734375,0.0185870006680488,-0.0050722565501928,-0.0126252472400665
1768636991707,0.1166229248046875,-0.110443115234375,-0.9992523193359376,0.0308902710676193,-0.0020865867845714,-0.0168402325361967
1768636991717,0.115509033203125,-0.1110382080078125,-0.9958038330078124,0.0401948243379592,0.0010969560826197,-0.0195233672857284
1768636991726,0.1200714111328125,-0.1118316650390625,-0.9900970458984376,0.0462540462613105,-0.0041681132279336,-0.020208865404129
1768636991736,0.1183013916015625,-0.112823486328125,-0.9801177978515624,0.0430063232779502,-0.008247809484601,-0.0245588719844818
1768636991747,0.1102447509765625,-0.116851806640625,-0.9657745361328124,0.0253913775086402,-0.0042112567462027,-0.0360293723642826
1768636991756,0.1101531982421875,-0.119171142578125,-0.95843505859375,0.0054853130131959,-0.002673547482118,-0.0388786904513835
1768636991767,0.120758056640625,-0.1212921142578125,-0.9555511474609376,-0.0179315954446792,0.0037910097744315,-0.0315115861594677
1768636991777,0.1271820068359375,-0.1157684326171875,-0.95782470703125,-0.0273802261799573,0.005903429351747,-0.0228669662028551
1768636991787,0.1281890869140625,-0.1087493896484375,-0.97174072265625,-0.0235442072153091,0.0013760552974417,-0.0167153310030698
1768636991797,0.12127685546875,-0.1024627685546875,-0.986297607421875,-0.0083926860243082,0.0052890377119183,-0.0206333734095096
1768636991807,0.1144256591796875,-0.10198974609375,-0.9959564208984376,0.0081250378862023,0.0048618670552968,-0.025217205286026
1768636991817,0.1159820556640625,-0.113555908203125,-0.990997314453125,0.0073455306701362,-0.0034141724463552,-0.0243420917540788
1768636991827,0.1200408935546875,-0.1221160888671875,-0.974884033203125,-0.0058483015745878,-0.0040730386972427,-0.0240672528743743
1768636991837,0.12158203125,-0.12432861328125,-0.9703216552734376,-0.0192844811826944,-0.0094092143699526,-0.021181184798479
1768636991847,0.123443603515625,-0.1175079345703125,-0.973602294921875,-0.0217060949653387,-0.0093269227072596,-0.0141203459352254
1768636991857,0.1178741455078125,-0.10858154296875,-0.985107421875,-0.0134942373260855,-0.0028692898340523,-0.0097639476880431
1768636991867,0.1124267578125,-0.1036529541015625,-0.99365234375,-0.0033119071740657,0.0025960493367165,-0.0102499742060899
1768636991877,0.1097869873046875,-0.106414794921875,-0.9910888671875,-0.0044139232486486,0.0100888535380363,-0.011836951598525
1768636991887,0.11639404296875,-0.1126251220703125,-0.9818878173828124,-0.0132348453626036,0.0034109766129404,-0.0078968051820993
1768636991899,0.1252593994140625,-0.1147003173828125,-0.9771575927734376,-0.0221732128411531,-0.0046413573436439,-0.0029747509397566
1768636991907,0.12640380859375,-0.116973876953125,-0.9779052734375,-0.0271607805043458,-0.0118702417239546,-0.000687628169544
1768636991918,0.12030029296875,-0.119659423828125,-0.9811248779296876,-0.0298116914927959,-0.0096212020143866,-0.0043249735608696
1768636991927,0.11798095703125,-0.1240234375,-0.9842529296875,-0.0305880028754472,-0.0101977763697505,-0.0079934783279895
1768636991937,0.1194915771484375,-0.126617431640625,-0.9899749755859376,-0.0299381911754608,-0.0103045692667365,-0.0114747621119022
1768636991950,0.11932373046875,-0.125762939453125,-0.9964752197265624,-0.0235516652464866,0.0010660634143278,-0.0056336508132517
1768636991957,0.123870849609375,-0.1226806640625,-1.00152587890625,-0.0112310824915766,0.0057697384618222,0.0071159661747515
1768636991968,0.124053955078125,-0.11749267578125,-1.0094146728515625,0.0130364401265978,0.0074816183187067,0.0149065116420388
1768636991978,0.1201934814453125,-0.1135101318359375,-1.01519775390625,0.0379090309143066,0.0128183271735906,0.0179499723017215
1768636991988,0.1159515380859375,-0.10858154296875,-1.0124053955078125,0.0609554946422576,0.0147168943658471,0.0180676840245723
1768636992001,0.1115570068359375,-0.105926513671875,-1.0024871826171875,0.0803422406315803,0.0131546845659613,0.0102997757494449
1768636992008,0.1071624755859375,-0.106719970703125,-0.99102783203125,0.0811656937003135,0.0178908500820398,0.0028836708515882
1768636992018,0.110015869140625,-0.1121063232421875,-0.97406005859375,0.0716203898191452,0.0237956102937459,-0.001588309300132
1768636992028,0.11163330078125,-0.1207275390625,-0.9586181640625,0.0498338676989078,0.0233143772929906,-0.0042096585966646
1768636992038,0.115814208984375,-0.1243438720703125,-0.94866943359375,0.0245002824813127,0.018658373504877,-0.0055457665584981
1768636992049,0.1187896728515625,-0.1260986328125,-0.9472808837890624,6.258428766159341e-05,0.0069844061508774,-0.0077655115164816
1768636992058,0.1192169189453125,-0.1221160888671875,-0.9539642333984376,-0.0163978822529315,0.0030602384358644,-0.0100603569298982
1768636992068,0.1136932373046875,-0.11676025390625,-0.965087890625,-0.0232264921069145,0.0079996036365628,-0.0142630916088819
1768636992078,0.1117401123046875,-0.1117401123046875,-0.97601318359375,-0.0207377690821886,0.0131546845659613,-0.0153539227321743
1768636992088,0.113067626953125,-0.1074371337890625,-0.981842041015625,-0.0185095015913248,0.0148508511483669,-0.0201928857713937
1768636992099,0.1090545654296875,-0.106170654296875,-0.983978271484375,-0.0192107129842042,0.0160796344280242,-0.0273021943867206
1768636992108,0.111328125,-0.1076202392578125,-0.984222412109375,-0.0221827998757362,0.0119328256696462,-0.0356980748474597
1768636992118,0.1146240234375,-0.1146087646484375,-0.97998046875,-0.0291767939925193,0.0159608572721481,-0.0372866503894329
1768636992128,0.1289825439453125,-0.117828369140625,-0.975250244140625,-0.0386222265660762,0.0133131425827741,-0.0263003129512071
1768636992138,0.1365203857421875,-0.12127685546875,-0.97686767578125,-0.0445416346192359,0.0133922379463911,-0.0103133572265505
1768636992148,0.1371917724609375,-0.1197509765625,-0.98321533203125,-0.0381822735071182,0.0089295795187354,-0.0004665858286898
1768636992158,0.1292724609375,-0.1212921142578125,-0.9916839599609376,-0.0327952317893505,0.0137451067566871,0.0004114583716727
1768636992169,0.1236572265625,-0.122894287109375,-0.992462158203125,-0.0272436048835515,0.0248142704367637,0.0035177695099264
1768636992179,0.12945556640625,-0.121337890625,-0.995269775390625,-0.0141938496381044,0.0215204712003469,0.0092403702437877
1768636992189,0.131988525390625,-0.1207275390625,-0.999786376953125,-0.0009917612187564,0.0242206510156393,0.0180208124220371
1768636992199,0.1292877197265625,-0.1187591552734375,-1.0003662109375,0.0127578731626272,0.0238510034978389,0.0243729837238788
1768636992209,0.1232452392578125,-0.1181640625,-0.99871826171875,0.0236962754279375,0.0202248450368642,0.0231157056987285
1768636992219,0.1125640869140625,-0.1176300048828125,-0.9903717041015624,0.0276918150484561,0.0262542404234409,0.0158790983259677
1768636992229,0.1087646484375,-0.1146697998046875,-0.985595703125,0.0281432215124368,0.022783875465393,0.0062714777886867
1768636992239,0.105621337890625,-0.114654541015625,-0.9793548583984376,0.0230603124946355,0.020905815064907,-0.0033878071699291
1768636992249,0.105499267578125,-0.113037109375,-0.972412109375,0.0122457472607493,0.0210597459226846,-0.0135869150981307
1768636992259,0.1090240478515625,-0.116851806640625,-0.9669036865234376,-0.0042458777315914,0.0183451846241951,-0.0178194772452116
1768636992269,0.116241455078125,-0.118621826171875,-0.96417236328125,-0.0148617699742317,0.0188975241035223,-0.0189907345920801
1768636992279,0.117645263671875,-0.120849609375,-0.968353271484375,-0.0246965587139129,0.014461763203144,-0.0206900984048843
1768636992289,0.12109375,-0.1213226318359375,-0.9707183837890624,-0.0294135492295026,0.0125237815082073,-0.0215819906443357
1768636992299,0.1222076416015625,-0.121917724609375,-0.972900390625,-0.0335212089121341,0.0142609616741538,-0.0213870480656623
1768636992309,0.123443603515625,-0.1210174560546875,-0.9780731201171876,-0.0321102663874626,0.0123874275013804,-0.0214275270700454
1768636992319,0.12652587890625,-0.12103271484375,-0.9857177734375,-0.0296782664954662,0.010777280665934,-0.0182474479079246
1768636992329,0.128387451171875,-0.1212158203125,-0.9889984130859376,-0.0247751213610172,0.0158886853605508,-0.0129501530900597
1768636992339,0.1267547607421875,-0.1207275390625,-0.9916534423828124,-0.0177936442196369,0.0172775238752365,-0.0119232386350631
1768636992349,0.1259765625,-0.1175689697265625,-0.995452880859375,-0.0069212894886732,0.012705941684544,-0.0114028565585613
1768636992359,0.1224365234375,-0.116455078125,-0.9974517822265624,0.0025827335193753,0.0091042825952172,-0.013733122497797
1768636992370,0.1174774169921875,-0.1147308349609375,-0.992034912109375,0.0051007522270083,0.0128359040245413,-0.0189092420041561
1768636992379,0.1161651611328125,-0.1143798828125,-0.9873504638671876,0.0034692999906837,0.0053170011378824,-0.0230728294700384
1768636992390,0.1183624267578125,-0.11260986328125,-0.98236083984375,0.0032059133518487,0.0016735304379835,-0.0247926972806453
1768636992400,0.1174774169921875,-0.1110687255859375,-0.98028564453125,0.0041638524271547,0.0045590652152895,-0.0307161007076501
1768636992410,0.119964599609375,-0.112945556640625,-0.9773712158203124,-0.0008343683439306,0.0065857311710715,-0.0313773639500141
1768636992420,0.12408447265625,-0.1178131103515625,-0.9723968505859376,-0.0131440311670303,0.0152932023629546,-0.0302074365317821
1768636992430,0.1285552978515625,-0.1210174560546875,-0.9666900634765624,-0.0271115116775035,0.0121919512748718,-0.0260539706796407
1768636992440,0.132171630859375,-0.1196441650390625,-0.968597412109375,-0.0296897180378437,0.009703760035336,-0.0196290947496891
1768636992450,0.1302490234375,-0.1120758056640625,-0.97967529296875,-0.0249775219708681,0.0068922606296837,-0.0159941464662551
1768636992460,0.12591552734375,-0.106048583984375,-0.9869232177734376,-0.015983760356903,-0.0034322820138186,-0.014469220302999
1768636992470,0.122314453125,-0.1035919189453125,-0.9900054931640624,-0.0128215225413441,-0.0072637717239558,-0.0197337567806243
1768636992480,0.1173553466796875,-0.10601806640625,-0.98638916015625,-0.0072065140120685,0.0012695288751274,-0.0235817581415176
1768636992490,0.1174774169921875,-0.1143341064453125,-0.984039306640625,-0.0090587427839636,-0.002255963627249,-0.032056737691164
1768636992501,0.1249237060546875,-0.119171142578125,-0.976776123046875,-0.0158593896776437,-6.0986389144090936e-05,-0.029526200145483
1768636992510,0.133880615234375,-0.117645263671875,-0.9774322509765624,-0.0178676806390285,0.0002599245344754,-0.019440809264779
1768636992520,0.134796142578125,-0.1123504638671875,-0.9821929931640624,-0.0114995297044515,0.0051177968271076,-0.0100968424230813
1768636992530,0.1320343017578125,-0.1062774658203125,-0.9872283935546876,-0.0032546492293477,0.0120689133182168,-0.0040211067534983
1768636992540,0.12664794921875,-0.1029052734375,-0.988525390625,0.0033723609521985,0.0214629471302032,-0.0009249158320017
1768636992550,0.1221923828125,-0.101470947265625,-0.9872589111328124,0.0054405718110501,0.0198669154196977,-0.0026229473296552
1768636992560,0.120361328125,-0.10552978515625,-0.98065185546875,-0.0003949467791244,0.0067636300809681,-0.0080965422093868
1768636992570,0.1219329833984375,-0.1093902587890625,-0.97357177734375,-0.015461248345673,0.0038751657120883,-0.013883058913052
1768636992581,0.1177825927734375,-0.113189697265625,-0.966156005859375,-0.0344839394092559,0.004235225263983,-0.024172980338335
1768636992590,0.1180419921875,-0.113616943359375,-0.96441650390625,-0.0513830296695232,-0.0033747577108442,-0.0332040265202522
1768636992601,0.1239166259765625,-0.11334228515625,-0.9719696044921876,-0.0569903142750263,-0.0075982650741934,-0.0343917943537235
1768636992611,0.132568359375,-0.1134490966796875,-0.98468017578125,-0.0526496283710002,-0.0062805325724184,-0.0290042217820882
1768636992620,0.1410980224609375,-0.111907958984375,-0.999053955078125,-0.0335491709411144,-0.0025374598335474,-0.0155139788985252
1768636992631,0.1456756591796875,-0.1121673583984375,-1.008026123046875,-0.0123826339840888,-0.002371278591454,0.001635979861021
1768636992641,0.1434326171875,-0.110992431640625,-1.01025390625,0.011404188349843,0.0039129825308918,0.0155070545151829
1768636992651,0.136260986328125,-0.108673095703125,-1.00732421875,0.027190875262022,0.0092179989442229,0.0239860266447067
1768636992661,0.1268463134765625,-0.1078338623046875,-0.9959564208984376,0.0371833220124244,0.0141270039603114,0.0208006203174591
1768636992671,0.1169586181640625,-0.108856201171875,-0.983673095703125,0.0369039550423622,0.0154665745794773,0.0090241208672523
1768636992681,0.1154937744140625,-0.1114654541015625,-0.97137451171875,0.029039641842246,0.0130446953698992,0.0009976201690733
1768636992691,0.1217041015625,-0.11590576171875,-0.967987060546875,0.0198008697479963,0.0072525865398347,-0.0034930021502077
1768636992701,0.1215972900390625,-0.11370849609375,-0.9692840576171876,0.0166985522955656,0.0064517739228904,-0.0104475812986493
1768636992711,0.1208648681640625,-0.113189697265625,-0.967987060546875,0.0045066010206937,-0.0020405140239745,-0.0106356004253029
1768636992721,0.1260223388671875,-0.1132049560546875,-0.9615478515625,-0.0119562614709138,-0.005748433060944,-0.0088483523577451
1768636992731,0.125457763671875,-0.1121978759765625,-0.9618377685546876,-0.0296479072421789,-0.0148990545421838,-0.012057994492352
1768636992741,0.12255859375,-0.1126708984375,-0.9647979736328124,-0.0383441932499408,-0.0181606281548738,-0.014110492542386
1768636992751,0.1256866455078125,-0.1101531982421875,-0.9716949462890624,-0.0413719415664672,-0.0188013836741447,-0.0100478399544954
1768636992761,0.12664794921875,-0.104217529296875,-0.9861297607421876,-0.0303507149219512,-0.0132417697459459,-0.0065974490717053
1768636992771,0.12542724609375,-0.1044158935546875,-0.9991607666015624,-0.0192879438400268,-0.0127360355108976,-0.0056618805974721
1768636992781,0.1258087158203125,-0.107574462890625,-1.0006561279296875,-0.0104563692584633,-0.0037979339249432,-0.003237604862079
1768636992791,0.1283721923828125,-0.11029052734375,-0.9987335205078124,0.0013819142477586,-0.0027121631428599,0.0046070022508502
1768636992801,0.1363372802734375,-0.1122894287109375,-0.9981689453125,0.0081740403547883,0.0004181162803433,0.0141562987118959
1768636992811,0.1352386474609375,-0.118194580078125,-0.9914703369140624,0.0059556271880865,0.0072326129302382,0.0243546087294816
1768636992821,0.130615234375,-0.121612548828125,-0.980072021484375,-0.0026077672373503,0.0059609534218907,0.0289797205477952
1768636992832,0.126190185546875,-0.11993408203125,-0.9796600341796876,-0.0022636868525296,-0.0004452805442269,0.0236733704805374
1768636992842,0.123138427734375,-0.1179046630859375,-0.9864501953125,0.0038988678716123,-0.0017590179340913,0.0199068635702133
1768636992852,0.1216278076171875,-0.115264892578125,-0.9909515380859376,0.0144356647506356,-0.0061527010984718,0.0151059823110699
1768636992862,0.12213134765625,-0.1141357421875,-0.9948272705078124,0.0246510170400142,-0.0049191247671842,0.0120643861591815
1768636992872,0.122589111328125,-0.1143341064453125,-0.992462158203125,0.0302836038172245,0.0023467775899916,0.016463128849864
1768636992882,0.126617431640625,-0.114013671875,-0.9882354736328124,0.0271314866840839,0.0038722362369298,0.0204133950173854
1768636992892,0.1278839111328125,-0.115997314453125,-0.9807891845703124,0.0204323045909404,0.0030692932195961,0.0275274980813264
1768636992902,0.1267242431640625,-0.1140899658203125,-0.9730987548828124,0.0127437580376863,0.0002410160814179,0.027140274643898
1768636992912,0.115325927734375,-0.1088409423828125,-0.9701080322265624,0.0050687943585217,0.0002854908525478,0.0169307794421911
1768636992922,0.1080780029296875,-0.1075592041015625,-0.9669189453125,-0.0048466869629919,0.0006934871198609,0.0049185920506715
1768636992933,0.1082305908203125,-0.1077728271484375,-0.965362548828125,-0.013538178987801,-0.0068672271445393,-0.0064187506213784
1768636992942,0.10992431640625,-0.110198974609375,-0.966888427734375,-0.0212831851094961,-0.011690211482346,-0.0206402968615293
1768636992952,0.1131134033203125,-0.1107635498046875,-0.969451904296875,-0.0265368018299341,-0.00477558048442,-0.024411866441369
1768636992962,0.1239013671875,-0.1148223876953125,-0.973602294921875,-0.0311065204441547,-0.0039260322228074,-0.0203183218836784
1768636992972,0.1358184814453125,-0.117218017578125,-0.977569580078125,-0.0331014953553676,-0.0107706226408481,-0.0072949309833347
1768636992984,0.137451171875,-0.118988037109375,-0.9822845458984376,-0.0323576740920543,-0.0073947994969785,0.0030466562602669
1768636992992,0.1331787109375,-0.1153564453125,-0.986236572265625,-0.0290412381291389,-0.0018972359830513,0.0083506079390645
1768636993002,0.12506103515625,-0.1115570068359375,-0.9915313720703124,-0.0199920833110809,-0.0033388049341738,0.0060898503288626
1768636993012,0.1213226318359375,-0.109588623046875,-0.99609375,-0.0113687682896852,-0.0020626182667911,0.0042711775749921
1768636993022,0.121551513671875,-0.108245849609375,-0.997161865234375,-0.0004008057294413,-0.0052304482087492,0.0037513286806643
1768636993032,0.122314453125,-0.1100006103515625,-0.9978790283203124,0.0086952205747365,-0.0093977628275752,0.0007278419216163
1768636993042,0.1219329833984375,-0.108978271484375,-0.9959716796875,0.0180351939052343,-0.0060842577368021,-0.0001046622273861
1768636993053,0.122283935546875,-0.110198974609375,-0.9923553466796876,0.022432604804635,-0.0079870866611599,0.0011763182701542
1768636993062,0.1271514892578125,-0.112091064453125,-0.987030029296875,0.0235609859228134,-0.0113394735381007,0.0037494644057005
1768636993073,0.1251373291015625,-0.115570068359375,-0.9774169921875,0.0088403634727001,0.0039630499668419,0.010055829770863
1768636993083,0.128204345703125,-0.1189117431640625,-0.966552734375,-0.0064701498486101,0.0069527146406471,0.0166705902665853
1768636993093,0.13189697265625,-0.1220550537109375,-0.9677886962890624,-0.0137621508911252,-0.0016700683627277,0.0201026052236557
1768636993103,0.13360595703125,-0.1196441650390625,-0.9742279052734376,-0.0182953830808401,-0.0002937466779258,0.0298668183386325
1768636993113,0.13043212890625,-0.1141815185546875,-0.975738525390625,-0.0161414183676242,0.0036626453511416,0.0336066968739032
1768636993123,0.12237548828125,-0.1119232177734375,-0.982025146484375,-0.0102457134053111,-0.0027097663842141,0.0279269721359014
1768636993133,0.112091064453125,-0.1080322265625,-0.98590087890625,-0.0023574302904307,-0.0001909486454678,0.0154487313702702
1768636993143,0.1077728271484375,-0.112152099609375,-0.9854583740234376,-0.0026818031910806,-0.006639793049544,0.0086640622466802
1768636993153,0.115478515625,-0.120330810546875,-0.9773712158203124,-0.0155296912416815,-0.0179438460618257,0.0066515109501779
1768636993163,0.1196441650390625,-0.12200927734375,-0.9712371826171876,-0.0302148945629596,-0.0099644837900996,0.0081245051696896
1768636993173,0.11688232421875,-0.1171417236328125,-0.973968505859375,-0.0381492488086223,-0.0016998957144096,0.0058847870677709
1768636993183,0.11749267578125,-0.10498046875,-0.9845733642578124,-0.026708310469985,0.003672232851386,0.0054474961943924
1768636993193,0.1136016845703125,-0.09552001953125,-1.00164794921875,-0.0031313446816056,0.0013225257862359,0.0004255731473676
1768636993203,0.110565185546875,-0.09283447265625,-1.0079345703125,0.019438412040472,0.0023209447972476,-0.0026860642246901
1768636993213,0.1149444580078125,-0.10205078125,-0.99847412109375,0.0273908786475658,-0.005125786177814,-0.003818972967565
1768636993223,0.1194915771484375,-0.10809326171875,-0.9831390380859376,0.0212853141129016,-0.0104635600000619,-0.005706887692213
1768636993233,0.1223602294921875,-0.1127777099609375,-0.969757080078125,0.0023976438678801,-0.0086337020620703,-0.0046528088860213
1768636993244,0.1208038330078125,-0.11895751953125,-0.959808349609375,-0.0176756661385297,-0.0079087894409894,-0.0057753310538828
1768636993253,0.117279052734375,-0.1216583251953125,-0.9548797607421876,-0.04774621874094,-0.0151765560731291,-0.0139288650825619
1768636993263,0.11614990234375,-0.123565673828125,-0.95672607421875,-0.0655880644917488,-0.0151011887937784,-0.0201731789857149
1768636993274,0.119659423828125,-0.12200927734375,-0.966949462890625,-0.0760175362229347,-0.014527010731399,-0.0188200268894433
1768636993284,0.1279296875,-0.1166534423828125,-0.984466552734375,-0.0719527527689933,-0.0171411707997322,-0.0091229248791933
1768636993294,0.1293792724609375,-0.11181640625,-1.0018310546875,-0.0506903417408466,-0.0079988045617938,-0.0002759034978225
1768636993304,0.1290130615234375,-0.1072235107421875,-1.014678955078125,-0.021999042481184,-0.0065689529292285,0.007881092838943
1768636993314,0.12506103515625,-0.1045684814453125,-1.0187530517578125,0.0076328860595822,-0.0008159925346262,0.0124963503330945
1768636993324,0.119598388671875,-0.0999298095703125,-1.0177154541015625,0.0374192781746387,0.0013385047204792,0.013169864192605
1768636993334,0.11822509765625,-0.10125732421875,-1.011260986328125,0.0551631189882755,-0.0008498146780766,0.0101058976724743
1768636993344,0.1152496337890625,-0.105499267578125,-0.9968414306640624,0.059159193187952,0.0042426818981766,0.0042698462493717
1768636993354,0.11126708984375,-0.1121673583984375,-0.9799041748046876,0.0517058037221431,0.0091578122228384,-0.0015291870804503
1768636993364,0.11419677734375,-0.1164703369140625,-0.9665679931640624,0.035531360656023,0.007815845310688,-0.0032535837963223
1768636993374,0.1191558837890625,-0.12091064453125,-0.957061767578125,0.0150974597781896,0.0001627191377338,-0.0009949569357559
1768636993384,0.120452880859375,-0.119384765625,-0.9536285400390624,-0.0046240463852882,-0.0073865433223545,-0.0031041805632412
1768636993394,0.1210479736328125,-0.1154327392578125,-0.957733154296875,-0.0259626246988773,-0.0094523578882217,-0.0010604707058519
1768636993404,0.118255615234375,-0.113189697265625,-0.9625091552734376,-0.035194206982851,-0.005984921939671,-0.004375307355076
1768636993414,0.117767333984375,-0.11114501953125,-0.971435546875,-0.0379580333828926,-0.0018783274572342,-0.0028349349740892
1768636993424,0.12005615234375,-0.1046905517578125,-0.9806976318359376,-0.0363092720508575,4.234426160110161e-05,-0.0008482168195769
1768636993435,0.1154022216796875,-0.1044921875,-0.9909210205078124,-0.0301251448690891,-0.0015638081822544,-0.0056102150119841
1768636993444,0.112030029296875,-0.1030426025390625,-0.992523193359375,-0.0274910125881433,-0.001422660658136,-0.0124960839748382
1768636993454,0.111083984375,-0.1030120849609375,-0.993499755859375,-0.022921560332179,-0.0049617355689406,-0.01517921872437
1768636993464,0.120361328125,-0.1026458740234375,-0.996551513671875,-0.0166570078581571,-0.0111634386703372,-0.0092086782678961
1768636993475,0.126495361328125,-0.10430908203125,-1.0002899169921875,-0.0020042951218783,-0.0068704229779541,-0.003776895115152
1768636993484,0.1232147216796875,-0.1082763671875,-0.997650146484375,0.0054435012862086,-0.0011704593198373,-0.0022293322253972
1768636993494,0.120391845703125,-0.11602783203125,-0.9901275634765624,0.0066259447485208,-0.0045390916056931,-0.0021981731988489
1768636993505,0.1232147216796875,-0.12115478515625,-0.981597900390625,0.0015672702575102,-0.0063865263946354,0.001987517112866
1768636993515,0.12640380859375,-0.123321533203125,-0.977630615234375,-0.0024695491883903,-0.0054733287543058,0.0084390249103307
1768636993525,0.1261444091796875,-0.12420654296875,-0.97320556640625,-0.0118217719718813,-0.0004303668392822,0.0144058372825384
1768636993535,0.127166748046875,-0.12164306640625,-0.9742279052734376,-0.0171965640038251,0.003459446132183,0.0225713551044464
1768636993545,0.1235198974609375,-0.1186676025390625,-0.9766845703125,-0.0193678382784128,0.0090227900072932,0.0237953439354896
1768636993555,0.1185455322265625,-0.1147613525390625,-0.9853973388671876,-0.012287026271224,0.0079860212281346,0.0247327759861946
1768636993565,0.1162567138671875,-0.10968017578125,-0.9911651611328124,-0.0031846079509705,-0.0003374225052539,0.0195012632757425
1768636993575,0.11151123046875,-0.10443115234375,-0.9920196533203124,0.0039084553718566,-0.0013174657942727,0.0173824522644281
1768636993585,0.10748291015625,-0.10321044921875,-0.9906768798828124,0.0058411112986505,-0.0020053603220731,0.0083197150379419
1768636993595,0.1056671142578125,-0.103607177734375,-0.9873199462890624,0.0055215316824615,-0.0069154305383563,0.0005281048361212
1768636993605,0.105804443359375,-0.10418701171875,-0.9883880615234376,0.0108254831284284,-0.0128726549446582,-0.0075311530381441
1768636993615,0.11212158203125,-0.1044769287109375,-0.9836883544921876,0.0043934169225394,-0.0036788906436413,-0.0079412795603275
1768636993625,0.1180572509765625,-0.110626220703125,-0.981964111328125,0.0025939189363271,-0.0063572316430509,-0.0063226106576621
1768636993635,0.122467041015625,-0.1134490966796875,-0.98126220703125,0.0005965480813756,-0.0038368161767721,-0.0041151163168251
1768636993645,0.122802734375,-0.1163482666015625,-0.979400634765625,-0.0065977154299616,0.0017196030821651,-0.0024991102982312
1768636993655,0.1238250732421875,-0.11663818359375,-0.9752349853515624,-0.0161864273250103,0.0012820457341149,0.0006338323582895
1768636993665,0.1268310546875,-0.1175994873046875,-0.97686767578125,-0.0193800888955593,-0.0024676851462572,0.0030964573379606
1768636993675,0.1218414306640625,-0.11602783203125,-0.9808197021484376,-0.0190003234893083,-0.0006759102689102,0.0027992485556751
1768636993685,0.1158905029296875,-0.1137237548828125,-0.9854583740234376,-0.0165387634187936,0.000884169479832,-0.0015297196805477
1768636993695,0.1127471923828125,-0.1105499267578125,-0.985504150390625,-0.0157296936959028,0.0103674195706844,-0.008648881688714
1768636993705,0.110595703125,-0.11126708984375,-0.9871978759765624,-0.0117243006825447,0.0104616954922676,-0.0102867260575294
1768636993716,0.1152191162109375,-0.1095123291015625,-0.990570068359375,-0.0060070259496569,0.0029470541048794,-0.0088976211845874
1768636993725,0.121734619140625,-0.1049957275390625,-0.9944915771484376,0.0005997438565827,0.0030892668291926,-0.0053758569993078
1768636993736,0.122039794921875,-0.106353759765625,-0.9928436279296876,0.0018519621808081,0.0053143380209803,-0.0013313142117112
1768636993746,0.119049072265625,-0.106597900390625,-0.98846435546875,0.009181248024106,0.0031302794814109,-0.0033470608759671
1768636993756,0.1166534423828125,-0.1085357666015625,-0.9884033203125,0.0129123367369174,0.003017095150426,-0.0041015343740582
1768636993766,0.1203460693359375,-0.1136932373046875,-0.985321044921875,0.0122281704097986,0.0010769823566079,-0.0041524008847773
1768636993776,0.12335205078125,-0.1223602294921875,-0.9775390625,0.0059787966310977,0.0032850091811269,-0.0022951122373342
1768636993786,0.1268157958984375,-0.12274169921875,-0.972137451171875,-0.0028514466248452,0.0096430396661162,0.007227286696434
1768636993796,0.1260986328125,-0.120880126953125,-0.970855712890625,-0.0076217008754611,0.0094214649870991,0.0127653302624821
1768636993806,0.1192169189453125,-0.113311767578125,-0.9771575927734376,-0.0069615030661225,0.0048991511575877,0.0115594509989023
1768636993816,0.1047210693359375,-0.105499267578125,-0.9855499267578124,-0.000348874105839,0.0147773483768105,0.0011989551130682
1768636993826,0.0969696044921875,-0.1036529541015625,-0.987640380859375,-0.0016154735349118,0.0123956827446818,-0.0095948362722992
1768636993836,0.1022796630859375,-0.113128662109375,-0.9822998046875,-0.0124063361436128,-0.0013374395202845,-0.0215673428028821
1768636993846,0.1111297607421875,-0.1165008544921875,-0.9739837646484376,-0.0252715349197387,0.0010090717114508,-0.0275799632072448
1768636993856,0.1183319091796875,-0.114471435546875,-0.9774322509765624,-0.0287584103643894,0.0014160027494654,-0.0270774234086275
1768636993866,0.125335693359375,-0.1068267822265625,-0.9873046875,-0.0170985590666532,0.0101975100114941,-0.0182120278477668
1768636993876,0.128173828125,-0.1010284423828125,-0.9996337890625,0.003385144053027,0.0163683202117681,-0.0079015986993908
1768636993886,0.1265869140625,-0.099151611328125,-1.003173828125,0.0217039640992879,0.0197750367224216,0.001186704612337
1768636993896,0.123046875,-0.101593017578125,-0.9958648681640624,0.0276926141232252,0.0201699826866388,-0.0014101437991485
1768636993906,0.12115478515625,-0.1045684814453125,-0.9834747314453124,0.0241785738617181,0.0120803648605942,-0.0047561391256749
1768636993916,0.1171722412109375,-0.1066741943359375,-0.975372314453125,0.0160258375108242,0.0078904135152697,-0.0105469170957803
1768636993926,0.1161956787109375,-0.111114501953125,-0.9702301025390624,0.0035840822383761,0.0019851203542202,-0.0143579002469778
1768636993936,0.1160430908203125,-0.1145477294921875,-0.965240478515625,-0.0111501226201653,0.0020956413354724,-0.0184359978884458
1768636993947,0.11541748046875,-0.1204681396484375,-0.9608154296875,-0.0321898944675922,0.0045920885168015,-0.0211774576455354
1768636993957,0.12054443359375,-0.1254119873046875,-0.9599151611328124,-0.0529273971915245,0.0059135491028428,-0.0170575473457574
1768636993968,0.1260528564453125,-0.12432861328125,-0.9646148681640624,-0.0651217475533485,0.0063953148201107,-0.0102542350068688
1768636993976,0.125396728515625,-0.1206817626953125,-0.977874755859375,-0.0660173669457435,0.0140359243378043,-0.0030192257836461
1768636993987,0.12506103515625,-0.11444091796875,-0.98974609375,-0.0547569878399372,0.0159880220890045,0.0041494714096188
1768636993997,0.1237945556640625,-0.1087799072265625,-1.0005035400390625,-0.0303294099867343,0.0177848562598228,0.0068717543035745
1768636994007,0.1201934814453125,-0.1048583984375,-1.0104522705078125,-0.0039390814490616,0.0189073774963617,0.0061503043398261
1768636994017,0.119781494140625,-0.1005706787109375,-1.0177001953125,0.0274244341999292,0.0147760165855288,0.0064706825651228
1768636994027,0.1225738525390625,-0.10150146484375,-1.019775390625,0.0558334365487098,0.0052352421917021,0.0081921499222517
1768636994037,0.1214599609375,-0.1069793701171875,-1.011688232421875,0.0715482160449028,0.0033814155030995,0.0030306773260235
1768636994047,0.11785888671875,-0.1115570068359375,-0.996368408203125,0.0677135363221168,-0.0012330436147749,0.0034200313966721
1768636994057,0.1152191162109375,-0.1155548095703125,-0.9710845947265624,0.0394195765256881,0.0059937103651463,-0.0012152004055678
1768636994067,0.115814208984375,-0.11773681640625,-0.9499053955078124,0.0046751792542636,0.0006410228670574,-0.0033068470656871
1768636994077,0.11480712890625,-0.115325927734375,-0.945098876953125,-0.0224238168448209,0.0002380866062594,-0.008690427057445
1768636994087,0.1133270263671875,-0.1095733642578125,-0.9528350830078124,-0.0374562963843345,0.0089410310611128,-0.0100739393383264
1768636994097,0.115936279296875,-0.1054840087890625,-0.96856689453125,-0.0380448549985885,0.0039960732683539,-0.010229468345642
1768636994107,0.120697021484375,-0.10009765625,-0.9807281494140624,-0.0264667607843875,0.005068261642009,-0.0082187810912728
1768636994117,0.1181793212890625,-0.09796142578125,-0.994964599609375,-0.0122079299762845,0.013121660798788,-0.0139605570584535
1768636994127,0.116790771484375,-0.10284423828125,-0.997955322265625,-0.0055521582253277,0.0162056013941764,-0.0158122517168521
1768636994138,0.1252288818359375,-0.1085662841796875,-0.9944305419921876,-0.001774197909981,0.0120356241241097,-0.0095234643667936
1768636994147,0.13214111328125,-0.110565185546875,-0.99395751953125,0.0017784589435905,0.0041761030443012,-0.0006724481936544
1768636994158,0.1325531005859375,-0.112213134765625,-0.9897613525390624,0.0034069819375872,0.0059377839788794,0.0120894201099872
1768636994168,0.126251220703125,-0.1159820556640625,-0.9838714599609376,0.0004090615548193,0.0103562343865633,0.0133315175771713
1768636994178,0.119781494140625,-0.1179351806640625,-0.977691650390625,-0.0062397862784564,0.0071745561435818,0.0091535504907369
1768636994188,0.118133544921875,-0.1183319091796875,-0.976531982421875,-0.0105226822197437,0.0061702779494225,0.0055966330692172
1768636994198,0.1195220947265625,-0.115875244140625,-0.976654052734375,-0.013015666976571,0.0052903695032,0.003858387703076
1768636994208,0.121368408203125,-0.11749267578125,-0.9805908203125,-0.0119133843109011,0.000454335269751,0.0023659523576498
1768636994218,0.1242828369140625,-0.1151580810546875,-0.9857177734375,-0.0071069118566811,-0.0028983182273805,0.0085210502147674
1768636994228,0.122802734375,-0.1135711669921875,-0.990142822265625,-0.00041385521763,-0.0004604605492204,0.0101383877918124
1768636994238,0.1221466064453125,-0.11181640625,-0.98992919921875,0.0030216225422918,0.0058991680853068,0.0135514950379729
1768636994248,0.1206207275390625,-0.109527587890625,-0.9905242919921876,0.0065218149684369,0.0012016182299703,0.0122609268873929
1768636994258,0.1156768798828125,-0.1065826416015625,-0.9895172119140624,0.0095490301027894,0.0006772418855689,0.0025947177782654
1768636994268,0.109954833984375,-0.1061553955078125,-0.988922119140625,0.0108454572036862,0.0051529505290091,-0.0044006071984767
1768636994278,0.110382080078125,-0.10540771484375,-0.985931396484375,0.0073194317519664,0.0017188041238114,-0.0137006323784589
1768636994288,0.115020751953125,-0.1073150634765625,-0.9796142578125,0.0020586235914379,0.0038653120864182,-0.0137411123141646
1768636994298,0.119720458984375,-0.1074676513671875,-0.9781036376953124,0.0001017327522276,0.0021478394046425,-0.0149717591702938
1768636994308,0.1206817626953125,-0.10931396484375,-0.978851318359375,-0.0007672567153349,0.0008916263468563,-0.0175779275596141
1768636994318,0.1234130859375,-0.111419677734375,-0.9786834716796876,-0.0059436429291963,0.0031880701426416,-0.0153525909408926
1768636994328,0.1260223388671875,-0.116363525390625,-0.975555419921875,-0.0125469509512186,0.0082350270822644,-0.0113240275532007
1768636994338,0.1312103271484375,-0.118133544921875,-0.9746551513671876,-0.0214440394192934,0.0117149790748953,-0.0004948153509758
1768636994348,0.13604736328125,-0.1204376220703125,-0.974945068359375,-0.0291296560317277,0.0145528437569737,0.0106664923951029
1768636994358,0.135833740234375,-0.1172943115234375,-0.9819488525390624,-0.0249804500490427,0.0092768548056483,0.0181952491402626
1768636994368,0.1262969970703125,-0.110443115234375,-0.9930572509765624,-0.0136303249746561,0.0104172211140394,0.0145493810996413
1768636994379,0.117523193359375,-0.1061859130859375,-0.9973602294921876,-0.0021635519806295,0.0157336890697479,0.0078014638274908
1768636994389,0.113800048828125,-0.103790283203125,-1.0006561279296875,0.010301106609404,-0.0091423653066158,-0.0030538467690348
1768636994399,0.112274169921875,-0.1046142578125,-1.000701904296875,0.0199625231325626,0.0082848276942968,-0.0090430295094847
1768636994409,0.11407470703125,-0.1042022705078125,-0.9969635009765624,0.0297594927251338,0.0148860048502683,-0.0184192210435867
1768636994419,0.110992431640625,-0.1078338623046875,-0.9896240234375,0.0303957220166921,0.0140593601390719,-0.0289160702377557
1768636994429,0.113983154296875,-0.1111907958984375,-0.9822845458984376,0.029012743383646,0.013946708291769,-0.032744362950325
1768636994439,0.118560791015625,-0.11614990234375,-0.9755859375,0.0175046920776367,0.0139568280428648,-0.0329241268336772
1768636994449,0.1216888427734375,-0.1219329833984375,-0.9653167724609376,0.0023124227300286,0.0143360625952482,-0.0348474644124507
1768636994459,0.126556396484375,-0.1245574951171875,-0.9596405029296876,-0.0179984420537948,0.0179539658129215,-0.0283954218029975
1768636994469,0.1345672607421875,-0.1221466064453125,-0.9637298583984376,-0.0289994273334741,0.017584852874279,-0.0145887965336442
1768636994479,0.13531494140625,-0.11346435546875,-0.976898193359375,-0.023936491459608,0.0227423310279846,-0.0093554183840751
1768636994489,0.1279754638671875,-0.105926513671875,-0.9897613525390624,-0.011584217660129,0.0230232942849397,-0.007921839132905
1768636994501,0.12408447265625,-0.1039581298828125,-0.9993133544921876,0.0074528562836349,0.0202125944197177,-0.0084994789212942
1768636994509,0.125152587890625,-0.1080474853515625,-1.0024871826171875,0.0207220558077096,0.0146255483850836,-0.0077343522571027
1768636994519,0.126312255859375,-0.11468505859375,-0.994659423828125,0.020461332052946,0.0091540832072496,-0.0065471152774989
1768636994529,0.1268157958984375,-0.1175537109375,-0.9881134033203124,0.0195851530879735,0.0062238075770437,-0.0080062607303261
1768636994539,0.1226959228515625,-0.115966796875,-0.9862213134765624,0.0186301432549953,0.0071780178695917,-0.0119373528286814
1768636994549,0.120880126953125,-0.110015869140625,-0.9829864501953124,0.0193441361188888,0.0134119456633925,-0.0083045354112982
1768636994559,0.12005615234375,-0.1038665771484375,-0.9830474853515624,0.0221188850700855,0.0170152019709348,-0.0106957871466875
1768636994569,0.1142425537109375,-0.098785400390625,-0.9846649169921876,0.0262073688209056,0.0170484911650419,-0.0165504813194274
1768636994580,0.1120452880859375,-0.09881591796875,-0.9808197021484376,0.0262446533888578,0.0133807864040136,-0.0207638684660196
1768636994589,0.118560791015625,-0.103424072265625,-0.9752655029296876,0.0162263736128807,0.0064757424406707,-0.0256536975502967
1768636994600,0.122314453125,-0.10986328125,-0.965972900390625,0.0008554073283448,0.0017110810149461,-0.0257743392139673
1768636994609,0.1251220703125,-0.115966796875,-0.9587860107421876,-0.0196543950587511,0.0010612696642056,-0.0243404936045408
1768636994620,0.1261444091796875,-0.1221160888671875,-0.9596710205078124,-0.035289280116558,-0.0031603733077645,-0.0250784549862146
1768636994630,0.127166748046875,-0.126983642578125,-0.964080810546875,-0.052977729588747,-0.0031246868893504,-0.0265996530652046
1768636994640,0.1277313232421875,-0.1270294189453125,-0.968780517578125,-0.0628183782100677,0.006990797817707,-0.0185856688767671
1768636994651,0.13140869140625,-0.121551513671875,-0.978302001953125,-0.0587466694414615,0.0106710204854607,-0.0104782069101929
1768636994660,0.1332244873046875,-0.11444091796875,-0.998626708984375,-0.0410875156521797,0.0044884914532303,0.0008530105114914
1768636994670,0.1285858154296875,-0.1101531982421875,-1.0137481689453125,-0.0138606885448098,0.005150553304702,0.0054344465024769
1768636994680,0.122100830078125,-0.1032867431640625,-1.018585205078125,0.0166452899575233,0.0082424832507967,0.0052416333928704
1768636994690,0.11602783203125,-0.1005096435546875,-1.0152740478515625,0.0401966869831085,0.0086201196536421,-0.0029736857395619
1768636994700,0.1136627197265625,-0.101043701171875,-1.0072784423828125,0.0542121045291423,0.0141909196972846,-0.0042333607561886
1768636994710,0.1174774169921875,-0.106353759765625,-0.9919891357421876,0.0553753748536109,0.0162319671362638,-0.0078014638274908
1768636994720,0.121063232421875,-0.1135406494140625,-0.9779052734375,0.0445195324718952,0.0098742023110389,-0.007547132205218
1768636994730,0.1220855712890625,-0.1184844970703125,-0.964569091796875,0.0306444615125656,0.0067921262234449,-0.0121602592989802
1768636994740,0.1206207275390625,-0.119476318359375,-0.9589996337890624,0.0131831802427768,0.0009361011325381,-0.0179664827883243
1768636994750,0.1205902099609375,-0.1187286376953125,-0.9583282470703124,-0.0044525391422212,-0.0046895602717995,-0.019058646634221
1768636994760,0.11981201171875,-0.1120758056640625,-0.9627685546875,-0.0178852565586566,-0.0103679522871971,-0.0274862200021743
1768636994770,0.1151275634765625,-0.1081695556640625,-0.970672607421875,-0.0197633188217878,-0.0078984033316373,-0.0371162109076976
1768636994780,0.11474609375,-0.106292724609375,-0.9793243408203124,-0.0198562629520893,-0.0013755226973444,-0.0440854355692863
1768636994790,0.1214599609375,-0.10369873046875,-0.988067626953125,-0.0080486051738262,0.0012759204255416,-0.0457946509122848
1768636994801,0.1254119873046875,-0.1048736572265625,-0.99798583984375,0.0044815675355494,0.0082792351022362,-0.0404057465493679
1768636994810,0.1337890625,-0.1120147705078125,-0.997100830078125,0.0106795420870184,0.0054296529851853,-0.0312093179672956
1768636994821,0.138458251953125,-0.1174163818359375,-0.9886627197265624,0.00632767053321,0.000688160827849,-0.0197971407324075
1768636994830,0.1360321044921875,-0.12005615234375,-0.97955322265625,-0.0007518103811889,0.0039028625469654,-0.0177182760089635
1768636994841,0.1305084228515625,-0.1197052001953125,-0.9764862060546876,-0.0089793801307678,0.0070115705020725,-0.0119517343118786
1768636994851,0.1289520263671875,-0.1186065673828125,-0.9783935546875,-0.0096153430640697,0.0087775122374296,-0.0105634285137057
1768636994861,0.1295928955078125,-0.1201934814453125,-0.9834442138671876,-0.004701810888946,-0.002805906580761,-0.0081269023939967
1768636994871,0.1293792724609375,-0.119842529296875,-0.988311767578125,0.0017536915838718,-0.0053446977399289,-0.0067766797728836
1768636994881,0.1268157958984375,-0.116790771484375,-0.9892120361328124,0.0068794777616858,0.0026375947054475,-0.0041979406960308
1768636994891,0.1291656494140625,-0.1150970458984375,-0.989593505859375,0.0101173492148518,-0.0008791094878688,0.0010492854053154
1768636994901,0.1276397705078125,-0.11376953125,-0.986846923828125,0.0101985754445195,0.00753781106323,0.0045500108972191
1768636994911,0.1217041015625,-0.11248779296875,-0.9794921875,0.0046179210767149,0.0154564538970589,0.0037233654875308
1768636994921,0.1206512451171875,-0.1110382080078125,-0.9767913818359376,0.0014588796766474,0.0101474430412054,-0.0002937466779258
1768636994931,0.11981201171875,-0.1091766357421875,-0.978973388671875,0.0061532338149845,0.0079801622778177,-0.0073122414760291
1768636994941,0.1177215576171875,-0.1092987060546875,-0.9838714599609376,0.0130313793197274,0.0086776437237858,-0.0124545386061072
1768636994951,0.1180267333984375,-0.1090240478515625,-0.984100341796875,0.0195678416639566,0.010154366493225,-0.0205505490303039
1768636994961,0.1191558837890625,-0.11383056640625,-0.9792327880859376,0.017536649480462,0.0083663202822208,-0.0262997802346944
1768636994971,0.1244354248046875,-0.118804931640625,-0.9729156494140624,0.0084342313930392,0.008159658871591,-0.0280763749033212
1768636994981,0.1270904541015625,-0.12237548828125,-0.9692230224609376,0.0002703108475543,0.005658418405801,-0.0261003095656633
1768636994991,0.1328582763671875,-0.124969482421875,-0.9649810791015624,-0.0186170935630798,0.0020892499014735,-0.0132750589400529
1768636995001,0.1374969482421875,-0.12432861328125,-0.96270751953125,-0.0346088446676731,0.0036330842413008,-0.0036597158759832
1768636995011,0.13037109375,-0.1209259033203125,-0.96807861328125,-0.0463331453502178,0.0074453991837799,-0.0006370281334966
1768636995021,0.12786865234375,-0.1158599853515625,-0.9777679443359376,-0.0418494455516338,4.500742215896025e-05,0.0022759374696761
1768636995031,0.1280364990234375,-0.1104583740234375,-0.9910736083984376,-0.0315288975834846,-0.005502357147634,0.003990214318037
1768636995041,0.1230010986328125,-0.1057586669921875,-0.9990081787109376,-0.0183158908039331,-0.0076435385271906,-0.0014229270163923
1768636995051,0.1170654296875,-0.1038360595703125,-1.001708984375,-0.0034045851789414,-0.0076472670771181,-0.0098302597180008
1768636995062,0.1163482666015625,-0.1020050048828125,-1.0004425048828125,0.006720220670104,-0.0042882221750915,-0.0097730020061135
1768636995072,0.11871337890625,-0.104736328125,-0.9937591552734376,0.0133637422695755,-0.0029132319614291,-0.0160569977015256
1768636995082,0.1193084716796875,-0.110748291015625,-0.9893646240234376,0.015739282593131,-0.0028240159153938,-0.0194820892065763
1768636995092,0.1241607666015625,-0.115478515625,-0.98260498046875,0.011543471366167,-0.0001504685933468,-0.0154809551313519
1768636995102,0.12945556640625,-0.12005615234375,-0.9715118408203124,-0.0010602044640108,0.0021036309190094,-0.0102438488975167
1768636995112,0.1288909912109375,-0.123291015625,-0.969146728515625,-0.0084387585520744,0.0016476977616548,-0.0061718756332993
1768636995122,0.130279541015625,-0.12017822265625,-0.975341796875,-0.005445631686598,-0.0008623315370641,-0.0027840686962008
1768636995132,0.13140869140625,-0.117462158203125,-0.9833831787109376,0.0033063145820051,-0.0076909428462386,0.0026535736396908
1768636995142,0.128936767578125,-0.1132965087890625,-0.987152099609375,0.0125972842797636,-0.0085466168820858,0.0050094057805836
1768636995152,0.12115478515625,-0.107635498046875,-0.98565673828125,0.0147704239934682,-0.0050877030007541,0.0032248217612504
1768636995162,0.1146697998046875,-0.104766845703125,-0.98291015625,0.0145547082647681,-0.0018753979820758,-0.0085823033004999
1768636995172,0.110382080078125,-0.108123779296875,-0.9794158935546876,0.013653228059411,0.0011933625210076,-0.0184597000479698
1768636995182,0.115997314453125,-0.118133544921875,-0.9731292724609376,0.0027316042687743,0.0024226775858551,-0.0208986233919858
1768636995192,0.12933349609375,-0.128875732421875,-0.96575927734375,-0.0145642952993512,-0.0055191349238157,-0.0150596434250473
1768636995202,0.1374053955078125,-0.1308746337890625,-0.9630126953125,-0.0318090617656707,-0.004840828012675,-0.0005882922559976
1768636995212,0.1357421875,-0.1240692138671875,-0.9683074951171876,-0.0419304072856903,-0.0037505298387259,0.0047452202998101
1768636995222,0.12725830078125,-0.11322021484375,-0.978851318359375,-0.0378573685884475,0.0003131877456326,0.0087823066860437
1768636995232,0.1212158203125,-0.102691650390625,-0.9899444580078124,-0.0260688848793506,0.0001856223243521,0.0107775460928678
1768636995242,0.1162567138671875,-0.0982818603515625,-0.9952545166015624,-0.0137781305238604,-0.0005635248962789,0.0056855827569961
1768636995253,0.1130828857421875,-0.097015380859375,-0.9940338134765624,-0.0105170896276831,0.0021323929540812,-0.0042408178560435
1768636995262,0.116119384765625,-0.1042022705078125,-0.984039306640625,-0.0187457241117954,-0.0023329290561378,-0.007079747505486
1768636995273,0.1241912841796875,-0.1087493896484375,-0.9792633056640624,-0.0257429145276546,-0.008339955471456,-0.0033609091769903
1768636995283,0.129608154296875,-0.111541748046875,-0.9825439453125,-0.0286609400063753,-0.0075641763396561,-0.0011060107499361
1768636995293,0.129791259765625,-0.11212158203125,-0.9863433837890624,-0.0264901965856552,-0.0122745092958211,-0.0016783240716904
1768636995303,0.1287078857421875,-0.1132049560546875,-0.990386962890625,-0.0239956136792898,-0.0178045630455017,-0.0043129893019795
1768636995313,0.1282958984375,-0.1136016845703125,-0.9915313720703124,-0.0166881661862134,-0.0094084152951836,-0.0031531827989965
1768636995323,0.13031005859375,-0.1126861572265625,-0.994964599609375,-0.0052264537662267,-0.00086685892893,0.0029158950783312
1768636995334,0.1339874267578125,-0.1150970458984375,-0.9972381591796876,0.0076536587439477,0.0080616548657417,0.0131629398092627
1768636995343,0.1385345458984375,-0.1173248291015625,-0.9958343505859376,0.0194029919803142,0.0121133876964449,0.0259327962994575
1768636995353,0.1385650634765625,-0.117889404296875,-0.9897613525390624,0.0277101900428533,0.0171307828277349,0.0370645448565483
1768636995363,0.13262939453125,-0.1171112060546875,-0.9858856201171876,0.0309997275471687,0.0175688732415437,0.0406238585710525
1768636995373,0.1241455078125,-0.114227294921875,-0.9786834716796876,0.0241900254040956,0.0200493410229682,0.0366187319159507
1768636995383,0.1156005859375,-0.1129150390625,-0.970733642578125,0.0130729246884584,0.0238675158470869,0.0285339057445526
1768636995393,0.114013671875,-0.112884521484375,-0.9647064208984376,0.001652757753618,0.0222661569714546,0.0201878268271684
1768636995403,0.1132049560546875,-0.1111297607421875,-0.967010498046875,-0.0069117019884288,0.0151866758242249,0.0133528234437108
1768636995413,0.11639404296875,-0.1101837158203125,-0.96923828125,-0.0151539193466305,0.0052999570034444,0.0065236794762313
1768636995423,0.117645263671875,-0.110015869140625,-0.9761505126953124,-0.0228014532476663,-0.0004000068001914,0.004096208140254
1768636995434,0.1215667724609375,-0.111541748046875,-0.9770050048828124,-0.0253527611494064,-0.0043878243304789,0.0007621967233717
1768636995443,0.126953125,-0.113800048828125,-0.9799652099609376,-0.0242840349674224,-0.0050994209013879,0.0104270745068788
1768636995453,0.13037109375,-0.112274169921875,-0.982147216796875,-0.0242510102689266,0.0009353021741844,0.0164538081735372
1768636995463,0.1231689453125,-0.1096954345703125,-0.9831390380859376,-0.0279722455888986,0.0044450820423662,0.0135829206556081
1768636995473,0.11895751953125,-0.111907958984375,-0.9807891845703124,-0.0310423374176025,-0.0002314286975888,0.0069604376330971
1768636995484,0.120635986328125,-0.113677978515625,-0.9839935302734376,-0.0283352341502904,0.0037420075386762,0.0052389702759683
1768636995494,0.1230621337890625,-0.1109161376953125,-0.99139404296875,-0.0192868784070014,0.0075894761830568,0.0048741172067821
1768636995504,0.123931884765625,-0.11322021484375,-0.99481201171875,-0.0076794913038611,0.0074408720247447,0.0063505740836262
1768636995513,0.126953125,-0.117401123046875,-0.99481201171875,0.0015435680979862,0.0070749535225331,0.0096781933680176
1768636995524,0.1317901611328125,-0.11895751953125,-0.9925689697265624,0.0047508128918707,-0.0031846079509705,0.0165893621742725
1768636995534,0.1279449462890625,-0.1166229248046875,-0.9911956787109376,0.0064312675967812,-0.0092531535774469,0.0156665779650211
1768636995544,0.11834716796875,-0.1119842529296875,-0.9899444580078124,0.0085604647174477,0.0007920240750536,0.0093980291858315
1768636995554,0.1135101318359375,-0.1121368408203125,-0.986358642578125,0.0088169276714324,0.0008048072922974,0.0030490530189126
1768636995564,0.113983154296875,-0.110443115234375,-0.9851837158203124,0.0114643760025501,0.0006620618514716,-0.0018351842882111
1768636995574,0.1154327392578125,-0.1095123291015625,-0.983612060546875,0.013749367557466,0.0011166634503751,-0.0065646921284496
1768636995584,0.116607666015625,-0.1100311279296875,-0.98370361328125,0.0171440988779068,-0.0025070998817682,-0.0089146653190255
1768636995594,0.1179046630859375,-0.1091156005859375,-0.9811248779296876,0.0161411520093679,-0.0050011500716209,-0.0139264678582549
1768636995604,0.1145477294921875,-0.1089630126953125,-0.9783782958984376,0.0119416145607829,-0.001913747517392,-0.0194290913641452
1768636995614,0.1144561767578125,-0.1094818115234375,-0.97186279296875,0.0005201153689995,0.0011193265672773,-0.0216238033026456
1768636995624,0.1199188232421875,-0.111663818359375,-0.9687652587890624,-0.0082611255347728,-0.0043377568945288,-0.0226994529366493
1768636995634,0.1217193603515625,-0.11309814453125,-0.966796875,-0.0205545425415039,-0.0012724583502858,-0.0264188237488269
1768636995644,0.12176513671875,-0.1148681640625,-0.96636962890625,-0.0335528999567031,0.0018010957865044,-0.0262601003050804
1768636995654,0.129119873046875,-0.118927001953125,-0.9705047607421876,-0.0415767394006252,0.0028746160678565,-0.0227673631161451
1768636995664,0.1347503662109375,-0.119049072265625,-0.976806640625,-0.0464990586042404,0.0023744744248688,-0.0132620092481374
1768636995675,0.136962890625,-0.1168365478515625,-0.9834136962890624,-0.0436406880617141,2.7963191314483993e-05,-0.0045699845068156
1768636995684,0.1342926025390625,-0.1078948974609375,-0.9959564208984376,-0.0291488301008939,-0.0115892784669995,-0.0029292108956724
1768636995694,0.126007080078125,-0.1022186279296875,-1.00518798828125,-0.0127584058791399,-0.0124374944716691,-0.0059729376807808
1768636995705,0.1182861328125,-0.10076904296875,-1.0069122314453125,0.0032855418976396,-0.0038903458043932,-0.0133831836283206
1768636995715,0.1166229248046875,-0.101593017578125,-1.0043792724609375,0.0144596332684159,0.0024335966445505,-0.0182570349425077
1768636995725,0.1203765869140625,-0.104156494140625,-0.9984588623046876,0.0185686238110065,0.006867759861052,-0.0196796953678131
1768636995735,0.12933349609375,-0.1079254150390625,-0.9923553466796876,0.0222573690116405,0.0079170456156134,-0.0115203019231557
1768636995745,0.1364898681640625,-0.1102752685546875,-0.9888458251953124,0.0259730108082294,0.0116153769195079,-0.0025707494933158
1768636995755,0.1338043212890625,-0.1108245849609375,-0.983062744140625,0.0242635272443294,0.0149730900302529,0.0022865901701152
1768636995765,0.13116455078125,-0.11309814453125,-0.978790283203125,0.0233343504369258,0.0102518387138843,0.0015507587231695
1768636995775,0.126617431640625,-0.115478515625,-0.9741973876953124,0.0145062385126948,0.011713114567101,0.0008274441352114
1768636995785,0.1302337646484375,-0.115875244140625,-0.9700927734375,0.0080986730754375,0.0060355220921337,0.0035052525345236
1768636995795,0.13092041015625,-0.1195068359375,-0.97039794921875,0.0008578042034059,0.0031161648221313,0.0081463437527418
1768636995805,0.1279296875,-0.117279052734375,-0.969879150390625,-0.0077809575013816,0.0062107578851282,0.0115410750731825
1768636995815,0.1191253662109375,-0.1134033203125,-0.970458984375,-0.0145693551748991,0.0101149519905447,0.0079149147495627
1768636995825,0.1134796142578125,-0.1093597412109375,-0.974395751953125,-0.0176399797201156,0.005395564250648,-0.0004234426014591
1768636995835,0.108367919921875,-0.1054229736328125,-0.9821319580078124,-0.0126926256343722,-0.003859719261527,-0.0097152115777134
1768636995845,0.1053466796875,-0.1088104248046875,-0.984100341796875,-0.0133016910403966,-0.0094848480075597,-0.0260507743805646
1768636995855,0.1147613525390625,-0.1189727783203125,-0.97406005859375,-0.0237029325217008,-0.0137736024335026,-0.0299437846988439
1768636995865,0.127838134765625,-0.1188201904296875,-0.9749603271484376,-0.0250049512833356,-0.0135514950379729,-0.026828683912754
1768636995875,0.1322174072265625,-0.1125030517578125,-0.9849090576171876,-0.0180144198238849,-0.0027877970132976,-0.0152529887855052
1768636995886,0.1370849609375,-0.10638427734375,-0.991790771484375,-0.0016636766958981,0.0082691153511404,0.0030663637444376
1768636995895,0.1361846923828125,-0.1009979248046875,-0.9992218017578124,0.0189108401536941,0.0053162020631134,0.0106340022757649
1768636995905,0.126953125,-0.1029510498046875,-0.999786376953125,0.0314905494451522,0.0016506272368133,0.0099242692813277
1768636995915,0.1180877685546875,-0.1059417724609375,-0.9859161376953124,0.0285924971103668,-0.0031510521657764,0.0059340554289519
1768636995925,0.115631103515625,-0.110107421875,-0.9744110107421876,0.0119043299928307,-0.0112856775522232,-0.0019116170005872
1768636995936,0.11712646484375,-0.11431884765625,-0.9646453857421876,-0.0102193476632237,-0.0164721831679344,-0.0074507258832454
1768636995945,0.117462158203125,-0.117645263671875,-0.9629974365234376,-0.0336415842175483,-0.0161736439913511,-0.010382866486907
1768636995956,0.1160736083984375,-0.11956787109375,-0.9642333984375,-0.0566278584301471,-0.0158929470926523,-0.0179566293954849
1768636995966,0.11920166015625,-0.123077392578125,-0.969940185546875,-0.0657358691096305,-0.0153994625434279,-0.0218869224190711
1768636995976,0.1264801025390625,-0.11962890625,-0.9878082275390624,-0.0594364292919635,-0.0110334763303399,-0.016270050778985
1768636995986,0.13165283203125,-0.11395263671875,-1.003173828125,-0.0353721044957637,-0.0015233281301334,-0.0060387179255485
1768636995996,0.1332550048828125,-0.11181640625,-1.013671875,-0.0087945563718676,-0.0010966897243633,0.0047252466902136
1768636996006,0.1337432861328125,-0.109771728515625,-1.0170440673828125,0.0196962058544158,0.0025576998014003,0.0155488662421703
1768636996016,0.1311492919921875,-0.107696533203125,-1.01544189453125,0.0457895919680595,0.0022759374696761,0.0199433472007513
1768636996026,0.1248626708984375,-0.105743408203125,-1.0092315673828125,0.0667401477694511,0.0018461032304912,0.0198144502937793
1768636996036,0.118804931640625,-0.105438232421875,-0.997711181640625,0.0775475203990936,0.0060136839747428,0.0123749105259776
1768636996046,0.11468505859375,-0.1114959716796875,-0.9816131591796876,0.0738680958747863,0.0081711104139685,0.0058858525007963
1768636996056,0.1185455322265625,-0.117706298828125,-0.96832275390625,0.0603344477713108,0.0084542045369744,0.0067311394959688
1768636996066,0.12115478515625,-0.1195068359375,-0.9579010009765624,0.0400789752602577,0.0069319419562816,0.0047204531729221
1768636996076,0.1208038330078125,-0.1196441650390625,-0.952178955078125,0.0161203797906637,0.0024122912436723,-0.0024519723374396
1768636996086,0.1170806884765625,-0.119720458984375,-0.9478302001953124,-0.0121658528223633,-0.0033470608759671,-0.0078014638274908
1768636996096,0.1166534423828125,-0.1170654296875,-0.94793701171875,-0.0382786802947521,0.0004791026876773,-0.0137570910155773
1768636996107,0.1191558837890625,-0.1131134033203125,-0.9569549560546876,-0.0519079379737377,-0.0011640676530078,-0.0075415396131575
1768636996116,0.127960205078125,-0.10968017578125,-0.970489501953125,-0.0529018305242061,-0.007627825718373,-0.0020003002136945
1768636996127,0.12774658203125,-0.107177734375,-0.9853363037109376,-0.047142744064331,-0.0013880395563319,-0.0002916161320172
1768636996136,0.1264801025390625,-0.105987548828125,-0.99517822265625,-0.0381654947996139,-0.0057545583695173,-2.7430558475316506e-05
1768636996147,0.1228790283203125,-0.105194091796875,-1.00189208984375,-0.0193675719201564,-0.007964183576405,-0.004839229863137
1768636996157,0.122467041015625,-0.10540771484375,-1.0061492919921875,-0.0078949406743049,-0.006329268682748,0.000589890172705
1768636996167,0.130096435546875,-0.1086883544921875,-1.005645751953125,0.0050970241427421,-0.0032410670537501,0.0051657333970069
1768636996177,0.1316070556640625,-0.1155853271484375,-1.000762939453125,0.0150167662650346,-0.0001171790863736,0.012638296931982
1768636996187,0.1288604736328125,-0.1205291748046875,-0.996551513671875,0.0195073876529932,0.0008167914929799,0.0146409943699836
1768636996197,0.1270294189453125,-0.1219940185546875,-0.991485595703125,0.0224504470825195,0.003483947366476,0.0191278886049985
1768636996207,0.1284332275390625,-0.1232757568359375,-0.9902801513671876,0.025590581819415,0.0029997846577316,0.0253205373883247
1768636996217,0.1318511962890625,-0.1240692138671875,-0.9889373779296876,0.030248450115323,0.0043191146105527,0.0369566865265369
1768636996227,0.1285552978515625,-0.1210784912109375,-0.9838409423828124,0.0287850424647331,0.0088321072980761,0.0444875732064247
1768636996237,0.12103271484375,-0.1158599853515625,-0.9808807373046876,0.0281911585479974,0.0092909699305891,0.0401610024273395
1768636996248,0.10943603515625,-0.113189697265625,-0.977325439453125,0.0240651220083236,0.0062741413712501,0.0286558791995048
1768636996257,0.1044921875,-0.1097564697265625,-0.9718017578125,0.0170636717230081,0.0047896951436996,0.0166303757578134
1768636996268,0.103057861328125,-0.108917236328125,-0.9669036865234376,0.0062238075770437,0.0039425436407327,0.0050709252245724
1768636996277,0.1055908203125,-0.108856201171875,-0.9664154052734376,-0.0057316552847623,-0.0018831212073564,-0.0067058396525681
1768636996287,0.1070098876953125,-0.1111907958984375,-0.965911865234375,-0.0137773314490914,-0.0025718146935105,-0.0136359175667166
1768636996297,0.111602783203125,-0.112548828125,-0.9666595458984376,-0.0204352345317602,-0.0126726515591144,-0.0167456902563571
1768636996307,0.1183929443359375,-0.1147308349609375,-0.972259521484375,-0.0212853141129016,-0.0170876402407884,-0.0156428758054971
1768636996317,0.122283935546875,-0.1159820556640625,-0.97894287109375,-0.0262555722147226,-0.0144883953034877,-0.0128859709948301
1768636996327,0.124847412109375,-0.11669921875,-0.976104736328125,-0.0253612827509641,-0.0138271320611238,-0.0082012042403221
1768636996337,0.1263427734375,-0.1177978515625,-0.9843597412109376,-0.0197020657360553,-0.0115187047049403,-0.0048701227642595
1768636996347,0.12725830078125,-0.119873046875,-0.9889373779296876,-0.0138191431760787,-0.0057156761176884,0.0012444951571524
1768636996357,0.1306915283203125,-0.1219635009765625,-0.991455078125,-0.010602843016386,-0.0135315209627151,0.012352273799479
1768636996368,0.1333770751953125,-0.1227264404296875,-0.9910736083984376,-0.011805260553956,-0.0168599393218755,0.0203992817550897
1768636996378,0.1295166015625,-0.11846923828125,-0.9869537353515624,-0.0137048931792378,-0.0128790466114878,0.0270734298974275
1768636996388,0.1214447021484375,-0.1148834228515625,-0.98358154296875,-0.0134585509076714,-0.0135395107790827,0.0211881101131439
1768636996398,0.1110992431640625,-0.1099700927734375,-0.9879150390625,-0.0077141122892498,-0.0120614562183618,0.0107221528887748
1768636996408,0.106353759765625,-0.1071319580078125,-0.9936676025390624,-0.0041670482605695,-0.0092984270304441,-0.0002689792599994
1768636996418,0.109893798828125,-0.1086578369140625,-0.99041748046875,0.0001275654212804,-0.0032695627305656,-0.0040083238855004
1768636996428,0.1174163818359375,-0.1138458251953125,-0.9879150390625,0.0031260184478014,-0.0043348274193704,-0.0060546966269612
1768636996438,0.123138427734375,-0.1173553466796875,-0.9903564453125,0.0076989321969449,-0.0071330107748508,-0.0056275255046784
1768636996448,0.130279541015625,-0.1226348876953125,-0.9888916015625,0.0093053514137864,-0.011889150366187,0.0056701363064348
1768636996458,0.1356048583984375,-0.1210174560546875,-0.983184814453125,0.0125948879867792,-0.0129197929054498,0.0180972442030906
1768636996468,0.1282501220703125,-0.117095947265625,-0.982513427734375,0.0110910004004836,-0.0100046973675489,0.02529470436275
1768636996478,0.11663818359375,-0.1139373779296875,-0.976348876953125,0.0070911990478634,-0.0067644291557371,0.0142942508682608
1768636996488,0.103729248046875,-0.111907958984375,-0.9734954833984376,-0.0010471548885107,-0.001136903418228,0.0011560781858861
1768636996498,0.102935791015625,-0.1141815185546875,-0.9654998779296876,-0.0161896217614412,-0.0042892871424555,-0.0087154610082507
1768636996508,0.1135406494140625,-0.12176513671875,-0.9625701904296876,-0.0325752533972263,-0.0119184451177716,-0.0119376191869378
1768636996518,0.1206207275390625,-0.1222686767578125,-0.96685791015625,-0.0387125089764595,-0.0150306150317192,-0.0131088774651288
1768636996528,0.11810302734375,-0.1168060302734375,-0.97906494140625,-0.035175297409296,-0.0114763602614402,-0.0138271320611238
1768636996538,0.119232177734375,-0.110321044921875,-0.988250732421875,-0.022539397701621,-0.0054842475801706,-0.0112340124323964
1768636996549,0.1167449951171875,-0.10137939453125,-0.99578857421875,-0.0068637649528682,0.0016703346045687,-0.0090052131563425
1768636996558,0.1128997802734375,-0.0971527099609375,-0.99688720703125,0.0070613715797662,0.0011307782260701,-0.0116308229044079
1768636996570,0.1116790771484375,-0.1019287109375,-0.9894866943359376,0.0057324543595314,-0.000997353810817,-0.017798438668251
1768636996578,0.1145477294921875,-0.108154296875,-0.976226806640625,-0.0056949034333229,-0.0060576261021196,-0.0176391806453466
1768636996589,0.12286376953125,-0.1118011474609375,-0.969329833984375,-0.0167978890240192,-0.0121203120797872,-0.0155051900073885
1768636996599,0.1249237060546875,-0.1154937744140625,-0.9703216552734376,-0.0255170781165361,-0.0197995379567146,-0.0136790601536631
1768636996609,0.122802734375,-0.1195526123046875,-0.971343994140625,-0.0353108532726764,-0.0215345863252878,-0.0151842795312404
1768636996619,0.11968994140625,-0.122467041015625,-0.9713287353515624,-0.0473182462155818,-0.0230334140360355,-0.0166274458169937
1768636996629,0.1211090087890625,-0.1242828369140625,-0.9719696044921876,-0.0636532753705978,-0.0177467726171016,-0.0113048525527119
1768636996639,0.1246795654296875,-0.122161865234375,-0.9790191650390624,-0.0664962008595466,-0.0133541552349925,-0.005689843557775
1768636996649,0.1255340576171875,-0.11871337890625,-0.9932403564453124,-0.0539585724472999,-0.0154290236532688,0.001807753695175
1768636996659,0.124420166015625,-0.1126556396484375,-1.0073089599609375,-0.0302436556667089,-0.0129581429064273,0.0080243702977895
1768636996669,0.1235504150390625,-0.1091766357421875,-1.017303466796875,-0.0025254755746573,-0.0073061161674559,0.0145579036325216
1768636996679,0.1229705810546875,-0.107177734375,-1.0186920166015625,0.0242201182991266,-0.0018652779981493,0.023578830063343
1768636996689,0.1220550537109375,-0.1055145263671875,-1.012969970703125,0.0467480644583702,0.0042530680075287,0.0272800903767347
1768636996699,0.11749267578125,-0.1084442138671875,-0.999237060546875,0.0515771731734275,-0.0004234426014591,0.0261804703623056
1768636996709,0.112548828125,-0.1111602783203125,-0.9817352294921876,0.0458668246865272,0.003115898463875,0.0168463587760925
1768636996720,0.10797119140625,-0.112884521484375,-0.9686126708984376,0.0315728411078453,0.0006769755273126,0.0102084288373589
1768636996729,0.103546142578125,-0.1141204833984375,-0.959228515625,0.0137403132393956,-0.0021598236635327,-0.002372610149905
1768636996739,0.1060333251953125,-0.113189697265625,-0.9568939208984376,-0.0075037227943539,-0.0068235513754189,-0.0056589511223137
1768636996749,0.110748291015625,-0.1136474609375,-0.9574127197265624,-0.0283938236534595,-0.0120231071487069,-0.0116824889555573
1768636996759,0.114776611328125,-0.114532470703125,-0.9605560302734376,-0.0407729968428611,-0.0185079034417867,-0.0076712355948984
1768636996769,0.120849609375,-0.1122894287109375,-0.967498779296875,-0.0476287715137004,-0.0136170089244842,-0.0017134778900071
1768636996779,0.1199798583984375,-0.10699462890625,-0.9780731201171876,-0.0448990315198898,-0.0028961875941604,-0.0030911311041563
1768636996790,0.11309814453125,-0.10479736328125,-0.9876556396484376,-0.0402664616703987,0.0017417073249816,-0.0056565538980066
1768636996799,0.1143951416015625,-0.106170654296875,-0.9936676025390624,-0.0313632488250732,-0.0036013927310705,-0.0055518918670713
1768636996815,0.1182403564453125,-0.10809326171875,-0.9931488037109376,-0.0301328692585229,-0.0065870624966919,-0.003622697899118
1768636996819,0.122772216796875,-0.1089630126953125,-0.98968505859375,-0.0266324095427989,-0.0063942498527467,0.0011859056539833
1768636996830,0.1242828369140625,-0.1103973388671875,-0.9924468994140624,-0.0195694398134946,-0.0077881482429802,0.0069567095488309
1768636996840,0.1224212646484375,-0.1124725341796875,-0.993896484375,-0.0112374741584062,-0.006686398293823,0.0079932119697332
1768636996850,0.119964599609375,-0.1163177490234375,-0.9926910400390624,-0.0062107578851282,-0.0022117553744465,0.0116156432777643
1768636996860,0.1217041015625,-0.1205291748046875,-0.9884796142578124,-0.0062179486267268,-0.004678108729422,0.0170343779027462
1768636996870,0.123382568359375,-0.1224212646484375,-0.9884796142578124,-0.0029832730069756,-0.0093207973986864,0.0208016838878393
1768636996880,0.1219940185546875,-0.118804931640625,-0.9908294677734376,-0.0009467537747696,-0.0071897357702255,0.0238041318953037
1768636996890,0.1172637939453125,-0.115631103515625,-0.9910125732421876,0.0050826431252062,-0.0034788872580975,0.0263762138783931
